File: MP6/data/DSC/100K-mt.txt
Filename:	C:\Program Files\Pyris\Data\F-Praktikum\WS1819\BA-C-04\Pd-Ni-P_100k-m.dsd

Temperature (°C)	Heat Flow Endo Up (mW)
200.33	0.0699
200.67	0.0702
201.00	0.0702
201.33	0.0711
201.67	0.0721
202.00	0.0739
202.33	0.0767
202.67	0.0819
203.00	0.0915
203.33	0.1070
203.67	0.1311
204.00	0.1664
204.33	0.2134
204.67	0.2734
205.00	0.3460
205.33	0.4308
205.67	0.5254
206.00	0.6284
206.33	0.7375
206.67	0.8501
207.00	0.9633
207.33	1.0740
207.67	1.1801
208.00	1.2793
208.33	1.3709
208.67	1.4525
209.00	1.5242
209.33	1.5855
209.67	1.6365
210.00	1.6761
210.33	1.7061
210.67	1.7262
211.00	1.7370
211.33	1.7398
211.67	1.7348
212.00	1.7231
212.33	1.7061
212.67	1.6838
213.00	1.6581
213.33	1.6294
213.67	1.5988
214.00	1.5666
214.33	1.5341
214.67	1.5020
215.00	1.4707
215.33	1.4401
215.67	1.4104
216.00	1.3829
216.33	1.3573
216.67	1.3331
217.00	1.3109
217.33	1.2905
217.67	1.2719
218.00	1.2549
218.33	1.2394
218.67	1.2255
219.00	1.2138
219.33	1.2036
219.67	1.1949
220.00	1.1878
220.33	1.1819
220.67	1.1779
221.00	1.1748
221.33	1.1726
221.67	1.1708
222.00	1.1699
222.33	1.1692
222.67	1.1692
223.00	1.1695
223.33	1.1705
223.67	1.1717
224.00	1.1729
224.33	1.1748
224.67	1.1770
225.00	1.1797
225.33	1.1825
225.67	1.1859
226.00	1.1896
226.33	1.1934
226.67	1.1974
227.00	1.2020
227.33	1.2070
227.67	1.2119
228.00	1.2172
228.33	1.2224
228.67	1.2274
229.00	1.2326
229.33	1.2376
229.67	1.2425
230.00	1.2478
230.33	1.2527
230.67	1.2583
231.00	1.2636
231.33	1.2688
231.67	1.2747
232.00	1.2806
232.33	1.2861
232.67	1.2917
233.00	1.2973
233.33	1.3028
233.67	1.3081
234.00	1.3127
234.33	1.3177
234.67	1.3223
235.00	1.3266
235.33	1.3313
235.67	1.3359
236.00	1.3396
236.33	1.3433
236.67	1.3464
237.00	1.3489
237.33	1.3504
237.67	1.3517
238.00	1.3523
238.33	1.3526
238.67	1.3517
239.00	1.3501
239.33	1.3477
239.67	1.3443
240.00	1.3415
240.33	1.3384
240.67	1.3359
241.00	1.3337
241.33	1.3325
241.67	1.3316
242.00	1.3310
242.33	1.3303
242.67	1.3297
243.00	1.3285
243.33	1.3279
243.67	1.3269
244.00	1.3263
244.33	1.3263
244.67	1.3266
245.00	1.3269
245.33	1.3276
245.67	1.3285
246.00	1.3291
246.33	1.3297
246.67	1.3310
247.00	1.3316
247.33	1.3319
247.67	1.3319
248.00	1.3313
248.33	1.3303
248.67	1.3291
249.00	1.3276
249.33	1.3263
249.67	1.3245
250.00	1.3229
250.33	1.3217
250.67	1.3208
251.00	1.3201
251.33	1.3195
251.67	1.3189
252.00	1.3180
252.33	1.3174
252.67	1.3158
253.00	1.3140
253.33	1.3112
253.67	1.3084
254.00	1.3047
254.33	1.3010
254.67	1.2966
255.00	1.2923
255.33	1.2874
255.67	1.2821
256.00	1.2762
256.33	1.2700
256.67	1.2636
257.00	1.2567
257.33	1.2496
257.67	1.2419
258.00	1.2339
258.33	1.2252
258.67	1.2156
259.00	1.2057
259.33	1.1949
259.67	1.1838
260.00	1.1720
260.33	1.1603
260.67	1.1476
261.00	1.1346
261.33	1.1210
261.67	1.1077
262.00	1.0941
262.33	1.0805
262.67	1.0666
263.00	1.0523
263.33	1.0372
263.67	1.0220
264.00	1.0066
264.33	0.9905
264.67	0.9744
265.00	0.9583
265.33	0.9419
265.67	0.9252
266.00	0.9085
266.33	0.8918
266.67	0.8755
267.00	0.8591
267.33	0.8424
267.67	0.8254
268.00	0.8084
268.33	0.7910
268.67	0.7737
269.00	0.7564
269.33	0.7394
269.67	0.7221
270.00	0.7051
270.33	0.6884
270.67	0.6717
271.00	0.6553
271.33	0.6389
271.67	0.6228
272.00	0.6070
272.33	0.5910
272.67	0.5755
273.00	0.5597
273.33	0.5446
273.67	0.5291
274.00	0.5140
274.33	0.4988
274.67	0.4837
275.00	0.4685
275.33	0.4537
275.67	0.4388
276.00	0.4240
276.33	0.4094
276.67	0.3949
277.00	0.3810
277.33	0.3671
277.67	0.3535
278.00	0.3399
278.33	0.3266
278.67	0.3136
279.00	0.3012
279.33	0.2894
279.67	0.2777
280.00	0.2669
280.33	0.2557
280.67	0.2452
281.00	0.2350
281.33	0.2248
281.67	0.2152
282.00	0.2056
282.33	0.1964
282.67	0.1877
283.00	0.1794
283.33	0.1713
283.67	0.1636
284.00	0.1565
284.33	0.1494
284.67	0.1426
285.00	0.1358
285.33	0.1296
285.67	0.1237
286.00	0.1178
286.33	0.1126
286.67	0.1073
287.00	0.1030
287.33	0.0983
287.67	0.0940
288.00	0.0900
288.33	0.0866
288.67	0.0832
289.00	0.0801
289.33	0.0776
289.67	0.0751
290.00	0.0733
290.33	0.0714
290.67	0.0702
291.00	0.0693
291.33	0.0693
291.67	0.0693
292.00	0.0702
292.33	0.0714
292.67	0.0736
293.00	0.0764
293.33	0.0795
293.67	0.0832
294.00	0.0875
294.33	0.0922
294.67	0.0971
295.00	0.1024
295.33	0.1076
295.67	0.1135
296.00	0.1197
296.33	0.1265
296.67	0.1336
297.00	0.1410
297.33	0.1491
297.67	0.1574
298.00	0.1661
298.33	0.1750
298.67	0.1849
299.00	0.1948
299.33	0.2053
299.67	0.2162
300.00	0.2273
300.33	0.2390
300.67	0.2514
301.00	0.2641
301.33	0.2777
301.67	0.2916
302.00	0.3058
302.33	0.3207
302.67	0.3358
303.00	0.3513
303.33	0.3677
303.67	0.3850
304.00	0.4029
304.33	0.4224
304.67	0.4428
305.00	0.4648
305.33	0.4880
305.67	0.5127
306.00	0.5381
306.33	0.5644
306.67	0.5916
307.00	0.6194
307.33	0.6482
307.67	0.6772
308.00	0.7069
308.33	0.7372
308.67	0.7682
309.00	0.7994
309.33	0.8312
309.67	0.8634
310.00	0.8968
310.33	0.9311
310.67	0.9661
311.00	1.0022
311.33	1.0397
311.67	1.0786
312.00	1.1185
312.33	1.1600
312.67	1.2026
313.00	1.2469
313.33	1.2926
313.67	1.3396
314.00	1.3882
314.33	1.4383
314.67	1.4896
315.00	1.5428
315.33	1.5981
315.67	1.6544
316.00	1.7132
316.33	1.7735
316.67	1.8356
317.00	1.9000
317.33	1.9658
317.67	2.0336
318.00	2.1034
318.33	2.1749
318.67	2.2482
319.00	2.3233
319.33	2.3997
319.67	2.4776
320.00	2.5574
320.33	2.6387
320.67	2.7216
321.00	2.8067
321.33	2.8932
321.67	2.9811
322.00	3.0707
322.33	3.1614
322.67	3.2529
323.00	3.3457
323.33	3.4394
323.67	3.5337
324.00	3.6286
324.33	3.7242
324.67	3.8197
325.00	3.9159
325.33	4.0121
325.67	4.1082
326.00	4.2035
326.33	4.2984
326.67	4.3924
327.00	4.4849
327.33	4.5761
327.67	4.6649
328.00	4.7515
328.33	4.8359
328.67	4.9172
329.00	4.9955
329.33	5.0703
329.67	5.1414
330.00	5.2082
330.33	5.2713
330.67	5.3297
331.00	5.3835
331.33	5.4327
331.67	5.4769
332.00	5.5162
332.33	5.5508
332.67	5.5805
333.00	5.6062
333.33	5.6269
333.67	5.6430
334.00	5.6551
334.33	5.6631
334.67	5.6674
335.00	5.6680
335.33	5.6656
335.67	5.6603
336.00	5.6523
336.33	5.6418
336.67	5.6291
337.00	5.6145
337.33	5.5988
337.67	5.5815
338.00	5.5632
338.33	5.5444
338.67	5.5249
339.00	5.5051
339.33	5.4853
339.67	5.4649
340.00	5.4445
340.33	5.4241
340.67	5.4040
341.00	5.3839
341.33	5.3641
341.67	5.3449
342.00	5.3257
342.33	5.3078
342.67	5.2898
343.00	5.2728
343.33	5.2568
343.67	5.2410
344.00	5.2261
344.33	5.2116
344.67	5.1977
345.00	5.1841
345.33	5.1708
345.67	5.1578
346.00	5.1445
346.33	5.1321
346.67	5.1198
347.00	5.1074
347.33	5.0950
347.67	5.0830
348.00	5.0715
348.33	5.0601
348.67	5.0490
349.00	5.0381
349.33	5.0273
349.67	5.0165
350.00	5.0060
350.33	4.9958
350.67	4.9852
351.00	4.9750
351.33	4.9648
351.67	4.9546
352.00	4.9447
352.33	4.9348
352.67	4.9253
353.00	4.9160
353.33	4.9067
353.67	4.8977
354.00	4.8897
354.33	4.8813
354.67	4.8733
355.00	4.8656
355.33	4.8572
355.67	4.8492
356.00	4.8405
356.33	4.8322
356.67	4.8232
357.00	4.8142
357.33	4.8053
357.67	4.7960
358.00	4.7870
358.33	4.7777
358.67	4.7682
359.00	4.7586
359.33	4.7490
359.67	4.7391
360.00	4.7292
360.33	4.7193
360.67	4.7094
361.00	4.6995
361.33	4.6893
361.67	4.6794
362.00	4.6692
362.33	4.6587
362.67	4.6482
363.00	4.6374
363.33	4.6262
363.67	4.6145
364.00	4.6027
364.33	4.5910
364.67	4.5789
365.00	4.5662
365.33	4.5542
365.67	4.5424
366.00	4.5307
366.33	4.5195
366.67	4.5087
367.00	4.4991
367.33	4.4895
367.67	4.4809
368.00	4.4722
368.33	4.4639
368.67	4.4555
369.00	4.4478
369.33	4.4397
369.67	4.4317
370.00	4.4240
370.33	4.4166
370.67	4.4098
371.00	4.4033
371.33	4.3980
371.67	4.3931
372.00	4.3890
372.33	4.3856
372.67	4.3828
373.00	4.3804
373.33	4.3782
373.67	4.3770
374.00	4.3757
374.33	4.3748
374.67	4.3742
375.00	4.3742
375.33	4.3739
375.67	4.3733
376.00	4.3726
376.33	4.3717
376.67	4.3705
377.00	4.3689
377.33	4.3671
377.67	4.3658
378.00	4.3643
378.33	4.3631
378.67	4.3627
379.00	4.3637
379.33	4.3658
379.67	4.3696
380.00	4.3751
380.33	4.3828
380.67	4.3924
381.00	4.4042
381.33	4.4187
381.67	4.4351
382.00	4.4546
382.33	4.4762
382.67	4.4997
383.00	4.5254
383.33	4.5526
383.67	4.5814
384.00	4.6108
384.33	4.6401
384.67	4.6692
385.00	4.6967
385.33	4.7233
385.67	4.7474
386.00	4.7697
386.33	4.7889
386.67	4.8056
387.00	4.8189
387.33	4.8285
387.67	4.8346
388.00	4.8365
388.33	4.8340
388.67	4.8269
389.00	4.8152
389.33	4.7982
389.67	4.7765
390.00	4.7499
390.33	4.7190
390.67	4.6840
391.00	4.6457
391.33	4.6036
391.67	4.5591
392.00	4.5121
392.33	4.4636
392.67	4.4135
393.00	4.3621
393.33	4.3096
393.67	4.2554
394.00	4.2001
394.33	4.1435
394.67	4.0844
395.00	4.0238
395.33	3.9614
395.67	3.8964
396.00	3.8299
396.33	3.7616
396.67	3.6917
397.00	3.6200
397.33	3.5467
397.67	3.4712
398.00	3.3939
398.33	3.3129
398.67	3.2288
399.00	3.1400
399.33	3.0457
399.67	2.9455
400.00	2.8385
400.33	2.7238
400.67	2.6010
401.00	2.4705
401.33	2.3320
401.67	2.1857
402.00	2.0326
402.33	1.8728
402.67	1.7067
403.00	1.5335
403.33	1.3542
403.67	1.1683
404.00	0.9757
404.33	0.7756
404.67	0.5681
405.00	0.3516
405.33	0.1262
405.67	-0.1092
406.00	-0.3547
406.33	-0.6114
406.67	-0.8804
407.00	-1.1624
407.33	-1.4581
407.67	-1.7688
408.00	-2.0954
408.33	-2.4390
408.67	-2.7995
409.00	-3.1790
409.33	-3.5770
409.67	-3.9951
410.00	-4.4333
410.33	-4.8925
410.67	-5.3727
411.00	-5.8743
411.33	-6.3982
411.67	-6.9443
412.00	-7.5136
412.33	-8.1064
412.67	-8.7236
413.00	-9.3656
413.33	-10.0339
413.67	-10.7291
414.00	-11.4521
414.33	-12.2041
414.67	-12.9871
415.00	-13.8020
415.33	-14.6511
415.67	-15.5353
416.00	-16.4574
416.33	-17.4191
416.67	-18.4226
417.00	-19.4706
417.33	-20.5653
417.67	-21.7098
418.00	-22.9060
418.33	-24.1578
418.67	-25.4677
419.00	-26.8389
419.33	-28.2744
419.67	-29.7763
420.00	-31.3485
420.33	-32.9924
420.67	-34.7096
421.00	-36.5014
421.33	-38.3667
421.67	-40.3032
422.00	-42.3070
422.33	-44.3709
422.67	-46.4858
423.00	-48.6409
423.33	-50.8222
423.67	-53.0154
424.00	-55.2039
424.33	-57.3722
424.67	-59.5035
425.00	-61.5810
425.33	-63.5870
425.67	-65.5049
426.00	-67.3164
426.33	-69.0040
426.67	-70.5508
427.00	-71.9414
427.33	-73.1642
427.67	-74.2100
428.00	-75.0731
428.33	-75.7537
428.67	-76.2553
429.00	-76.5850
429.33	-76.7554
429.67	-76.7801
430.00	-76.6771
430.33	-76.4641
430.67	-76.1613
431.00	-75.7884
431.33	-75.3650
431.67	-74.9089
432.00	-74.4358
432.33	-73.9571
432.67	-73.4808
433.00	-73.0099
433.33	-72.5407
433.67	-72.0651
434.00	-71.5685
434.33	-71.0329
434.67	-70.4361
435.00	-69.7539
435.33	-68.9616
435.67	-68.0348
436.00	-66.9519
436.33	-65.6939
436.67	-64.2463
437.00	-62.6015
437.33	-60.7575
437.67	-58.7196
438.00	-56.4996
438.33	-54.1169
438.67	-51.5957
439.00	-48.9643
439.33	-46.2545
439.67	-43.4982
440.00	-40.7277
440.33	-37.9737
440.67	-35.2638
441.00	-32.6229
441.33	-30.0717
441.67	-27.6271
442.00	-25.3026
442.33	-23.1073
442.67	-21.0481
443.00	-19.1277
443.33	-17.3493
443.67	-15.7112
444.00	-14.2117
444.33	-12.8443
444.67	-11.6020
445.00	-10.4770
445.33	-9.4609
445.67	-8.5455
446.00	-7.7233
446.33	-6.9860
446.67	-6.3267
447.00	-5.7389
447.33	-5.2156
447.67	-4.7515
448.00	-4.3405
448.33	-3.9784
448.67	-3.6602
449.00	-3.3815
449.33	-3.1391
449.67	-2.9291
450.00	-2.7485
450.33	-2.5948
450.67	-2.4653
451.00	-2.3576
451.33	-2.2698
451.67	-2.2005
452.00	-2.1477
452.33	-2.1099
452.67	-2.0864
453.00	-2.0762
453.33	-2.0781
453.67	-2.0923
454.00	-2.1171
454.33	-2.1523
454.67	-2.1984
455.00	-2.2534
455.33	-2.3187
455.67	-2.3932
456.00	-2.4773
456.33	-2.5707
456.67	-2.6728
457.00	-2.7841
457.33	-2.9047
457.67	-3.0336
458.00	-3.1722
458.33	-3.3194
458.67	-3.4755
459.00	-3.6410
459.33	-3.8154
459.67	-3.9988
460.00	-4.1914
460.33	-4.3931
460.67	-4.6043
461.00	-4.8244
461.33	-5.0542
461.67	-5.2923
462.00	-5.5400
462.33	-5.7964
462.67	-6.0614
463.00	-6.3348
463.33	-6.6165
463.67	-6.9066
464.00	-7.2047
464.33	-7.5105
464.67	-7.8238
465.00	-8.1435
465.33	-8.4698
465.67	-8.8019
466.00	-9.1386
466.33	-9.4800
466.67	-9.8248
467.00	-10.1721
467.33	-10.5212
467.67	-10.8707
468.00	-11.2198
468.33	-11.5677
468.67	-11.9122
469.00	-12.2527
469.33	-12.5885
469.67	-12.9172
470.00	-13.2376
470.33	-13.5484
470.67	-13.8477
471.00	-14.1344
471.33	-14.4068
471.67	-14.6632
472.00	-14.9026
472.33	-15.1237
472.67	-15.3250
473.00	-15.5053
473.33	-15.6636
473.67	-15.7990
474.00	-15.9110
474.33	-15.9982
474.67	-16.0610
475.00	-16.0984
475.33	-16.1104
475.67	-16.0971
476.00	-16.0585
476.33	-15.9948
476.67	-15.9067
477.00	-15.7947
477.33	-15.6593
477.67	-15.5015
478.00	-15.3225
478.33	-15.1230
478.67	-14.9047
479.00	-14.6688
479.33	-14.4167
479.67	-14.1505
480.00	-13.8719
480.33	-13.5812
480.67	-13.2812
481.00	-12.9720
481.33	-12.6562
481.67	-12.3346
482.00	-12.0090
482.33	-11.6803
482.67	-11.3500
483.00	-11.0194
483.33	-10.6892
483.67	-10.3608
484.00	-10.0345
484.33	-9.7117
484.67	-9.3931
485.00	-9.0790
485.33	-8.7703
485.67	-8.4673
486.00	-8.1707
486.33	-7.8807
486.67	-7.5980
487.00	-7.3228
487.33	-7.0553
487.67	-6.7958
488.00	-6.5447
488.33	-6.3014
488.67	-6.0670
489.00	-5.8403
489.33	-5.6223
489.67	-5.4126
490.00	-5.2104
490.33	-5.0168
490.67	-4.8306
491.00	-4.6522
491.33	-4.4812
491.67	-4.3173
492.00	-4.1608
492.33	-4.0115
492.67	-3.8689
493.00	-3.7328
493.33	-3.6036
493.67	-3.4805
494.00	-3.3636
494.33	-3.2526
494.67	-3.1468
495.00	-3.0466
495.33	-2.9508
495.67	-2.8602
496.00	-2.7736
496.33	-2.6913
496.67	-2.6131
497.00	-2.5382
497.33	-2.4668
497.67	-2.3988
498.00	-2.3335
498.33	-2.2711
498.67	-2.2117
499.00	-2.1545
499.33	-2.1004
499.67	-2.0484
500.00	-1.9995
500.33	-1.9532
500.67	-1.9089
501.00	-1.8666
501.33	-1.8264
501.67	-1.7877
502.00	-1.7509
502.33	-1.7154
502.67	-1.6820
503.00	-1.6501
503.33	-1.6189
503.67	-1.5901
504.00	-1.5620
504.33	-1.5351
504.67	-1.5091
505.00	-1.4843
505.33	-1.4602
505.67	-1.4367
506.00	-1.4138
506.33	-1.3913
506.67	-1.3690
507.00	-1.3477
507.33	-1.3266
507.67	-1.3059
508.00	-1.2855
508.33	-1.2651
508.67	-1.2447
509.00	-1.2246
509.33	-1.2048
509.67	-1.1850
510.00	-1.1649
510.33	-1.1451
510.67	-1.1253
511.00	-1.1055
511.33	-1.0854
511.67	-1.0656
512.00	-1.0462
512.33	-1.0273
512.67	-1.0087
513.00	-0.9908
513.33	-0.9729
513.67	-0.9555
514.00	-0.9376
514.33	-0.9197
514.67	-0.9024
515.00	-0.8844
515.33	-0.8665
515.67	-0.8492
516.00	-0.8315
516.33	-0.8142
516.67	-0.7969
517.00	-0.7793
517.33	-0.7610
517.67	-0.7419
518.00	-0.7221
518.33	-0.7014
518.67	-0.6803
519.00	-0.6587
519.33	-0.6367
519.67	-0.6138
520.00	-0.5903
520.33	-0.5659
520.67	-0.5409
521.00	-0.5146
521.33	-0.4877
521.67	-0.4598
522.00	-0.4311
522.33	-0.4020
522.67	-0.3726
523.00	-0.3426
523.33	-0.3120
523.67	-0.2808
524.00	-0.2489
524.33	-0.2158
524.67	-0.1818
525.00	-0.1469
525.33	-0.1110
525.67	-0.0733
526.00	-0.0343
526.33	0.0062
526.67	0.0482
527.00	0.0922
527.33	0.1373
527.67	0.1846
528.00	0.2338
528.33	0.2848
528.67	0.3386
529.00	0.3943
529.33	0.4524
529.67	0.5127
530.00	0.5755
530.33	0.6401
530.67	0.7075
531.00	0.7768
531.33	0.8489
531.67	0.9231
532.00	1.0004
532.33	1.0805
532.67	1.1637
533.00	1.2493
533.33	1.3378
533.67	1.4290
534.00	1.5230
534.33	1.6201
534.67	1.7191
535.00	1.8205
535.33	1.9238
535.67	2.0289
536.00	2.1356
536.33	2.2432
536.67	2.3515
537.00	2.4591
537.33	2.5664
537.67	2.6724
538.00	2.7764
538.33	2.8787
538.67	2.9777
539.00	3.0735
539.33	3.1654
539.67	3.2523
540.00	3.3333
540.33	3.4081
540.67	3.4752
541.00	3.5343
541.33	3.5841
541.67	3.6246
542.00	3.6546
542.33	3.6744
542.67	3.6830
543.00	3.6803
543.33	3.6660
543.67	3.6407
544.00	3.6036
544.33	3.5550
544.67	3.4956
545.00	3.4261
545.33	3.3466
545.67	3.2591
546.00	3.1641
546.33	3.0627
546.67	2.9560
547.00	2.8456
547.33	2.7324
547.67	2.6168
548.00	2.5011
548.33	2.3855
548.67	2.2707
549.00	2.1576
549.33	2.0472
549.67	1.9395
550.00	1.8360