File: MP6/data/DSC/20K-mt.txt
Filename:	C:\Program Files\Pyris\Data\F-Praktikum\WS1819\BA-C-04\Pd-Ni-P_20k-m.dsd

Temperature (°C)	Heat Flow Endo Up (mW)
200.07	0.1641
200.33	0.1648
200.60	0.1641
200.87	0.1620
201.13	0.1812
201.40	0.2286
201.67	0.2905
201.93	0.3459
202.20	0.3797
202.47	0.3936
202.73	0.3952
203.00	0.3887
203.27	0.3825
203.53	0.3754
203.80	0.3667
204.07	0.3602
204.33	0.3571
204.60	0.3565
204.87	0.3577
205.13	0.3593
205.40	0.3593
205.67	0.3589
205.93	0.3602
206.20	0.3633
206.47	0.3673
206.73	0.3713
207.00	0.3735
207.27	0.3751
207.53	0.3763
207.80	0.3785
208.07	0.3809
208.33	0.3840
208.60	0.3865
208.87	0.3893
209.13	0.3924
209.40	0.3955
209.67	0.3986
209.93	0.4011
210.20	0.4039
210.47	0.4073
210.73	0.4094
211.00	0.4116
211.27	0.4135
211.53	0.4156
211.80	0.4172
212.07	0.4184
212.33	0.4197
212.60	0.4212
212.87	0.4218
213.13	0.4221
213.40	0.4221
213.67	0.4221
213.93	0.4221
214.20	0.4212
214.47	0.4215
214.73	0.4218
215.00	0.4237
215.27	0.4258
215.53	0.4271
215.80	0.4280
216.07	0.4293
216.33	0.4299
216.60	0.4308
216.87	0.4320
217.13	0.4324
217.40	0.4327
217.67	0.4333
217.93	0.4348
218.20	0.4364
218.47	0.4373
218.73	0.4370
219.00	0.4358
219.27	0.4348
219.53	0.4333
219.80	0.4320
220.07	0.4314
220.33	0.4314
220.60	0.4311
220.87	0.4296
221.13	0.4258
221.40	0.4215
221.67	0.4200
221.93	0.4203
222.20	0.4227
222.47	0.4249
222.73	0.4268
223.00	0.4280
223.27	0.4293
223.53	0.4299
223.80	0.4308
224.07	0.4324
224.33	0.4327
224.60	0.4324
224.87	0.4314
225.13	0.4308
225.40	0.4308
225.67	0.4305
225.93	0.4302
226.20	0.4296
226.47	0.4280
226.73	0.4271
227.00	0.4265
227.27	0.4262
227.53	0.4258
227.80	0.4255
228.07	0.4246
228.33	0.4240
228.60	0.4234
228.87	0.4231
229.13	0.4224
229.40	0.4218
229.67	0.4209
229.93	0.4197
230.20	0.4187
230.47	0.4175
230.73	0.4159
231.00	0.4144
231.27	0.4125
231.53	0.4113
231.80	0.4110
232.07	0.4104
232.33	0.4088
232.60	0.4066
232.87	0.4045
233.13	0.4020
233.40	0.3995
233.67	0.3977
233.93	0.3952
234.20	0.3921
234.47	0.3887
234.73	0.3856
235.00	0.3837
235.27	0.3828
235.53	0.3828
235.80	0.3822
236.07	0.3794
236.33	0.3772
236.60	0.3754
236.87	0.3729
237.13	0.3710
237.40	0.3707
237.67	0.3701
237.93	0.3692
238.20	0.3673
238.47	0.3655
238.73	0.3636
239.00	0.3620
239.27	0.3602
239.53	0.3577
239.80	0.3552
240.07	0.3531
240.33	0.3521
240.60	0.3512
240.87	0.3497
241.13	0.3478
241.40	0.3456
241.67	0.3438
241.93	0.3425
242.20	0.3407
242.47	0.3388
242.73	0.3367
243.00	0.3351
243.27	0.3336
243.53	0.3326
243.80	0.3326
244.07	0.3320
244.33	0.3305
244.60	0.3289
244.87	0.3277
245.13	0.3261
245.40	0.3240
245.67	0.3221
245.93	0.3199
246.20	0.3174
246.47	0.3150
246.73	0.3131
247.00	0.3122
247.27	0.3109
247.53	0.3097
247.80	0.3088
248.07	0.3072
248.33	0.3054
248.60	0.3032
248.87	0.3004
249.13	0.2979
249.40	0.2955
249.67	0.2939
249.93	0.2933
250.20	0.2927
250.47	0.2914
250.73	0.2905
251.00	0.2896
251.27	0.2877
251.53	0.2859
251.80	0.2846
252.07	0.2837
252.33	0.2831
252.60	0.2812
252.87	0.2797
253.13	0.2790
253.40	0.2775
253.67	0.2763
253.93	0.2741
254.20	0.2729
254.47	0.2729
254.73	0.2719
255.00	0.2701
255.27	0.2685
255.53	0.2676
255.80	0.2670
256.07	0.2670
256.33	0.2667
256.60	0.2657
256.87	0.2648
257.13	0.2633
257.40	0.2623
257.67	0.2614
257.93	0.2605
258.20	0.2589
258.47	0.2577
258.73	0.2571
259.00	0.2574
259.27	0.2574
259.53	0.2571
259.80	0.2567
260.07	0.2555
260.33	0.2549
260.60	0.2540
260.87	0.2540
261.13	0.2540
261.40	0.2540
261.67	0.2540
261.93	0.2530
262.20	0.2527
262.47	0.2521
262.73	0.2521
263.00	0.2512
263.27	0.2502
263.53	0.2493
263.80	0.2475
264.07	0.2471
264.33	0.2459
264.60	0.2450
264.87	0.2444
265.13	0.2437
265.40	0.2431
265.67	0.2425
265.93	0.2416
266.20	0.2406
266.47	0.2403
266.73	0.2403
267.00	0.2403
267.27	0.2410
267.53	0.2413
267.80	0.2413
268.07	0.2416
268.33	0.2419
268.60	0.2422
268.87	0.2425
269.13	0.2425
269.40	0.2422
269.67	0.2419
269.93	0.2419
270.20	0.2419
270.47	0.2419
270.73	0.2413
271.00	0.2413
271.27	0.2419
271.53	0.2425
271.80	0.2437
272.07	0.2444
272.33	0.2447
272.60	0.2453
272.87	0.2462
273.13	0.2462
273.40	0.2465
273.67	0.2462
273.93	0.2459
274.20	0.2456
274.47	0.2468
274.73	0.2481
275.00	0.2481
275.27	0.2475
275.53	0.2468
275.80	0.2462
276.07	0.2471
276.33	0.2478
276.60	0.2487
276.87	0.2502
277.13	0.2518
277.40	0.2530
277.67	0.2530
277.93	0.2524
278.20	0.2530
278.47	0.2540
278.73	0.2549
279.00	0.2558
279.27	0.2561
279.53	0.2561
279.80	0.2564
280.07	0.2564
280.33	0.2571
280.60	0.2589
280.87	0.2602
281.13	0.2608
281.40	0.2614
281.67	0.2626
281.93	0.2636
282.20	0.2651
282.47	0.2663
282.73	0.2679
283.00	0.2694
283.27	0.2713
283.53	0.2722
283.80	0.2735
284.07	0.2735
284.33	0.2744
284.60	0.2753
284.87	0.2759
285.13	0.2775
285.40	0.2787
285.67	0.2809
285.93	0.2831
286.20	0.2849
286.47	0.2865
286.73	0.2874
287.00	0.2880
287.27	0.2896
287.53	0.2917
287.80	0.2939
288.07	0.2955
288.33	0.2964
288.60	0.2964
288.87	0.2973
289.13	0.2989
289.40	0.3013
289.67	0.3048
289.93	0.3078
290.20	0.3109
290.47	0.3140
290.73	0.3174
291.00	0.3205
291.27	0.3224
291.53	0.3140
291.80	0.2874
292.07	0.2744
292.33	0.2812
292.60	0.2979
292.87	0.3159
293.13	0.3308
293.40	0.3413
293.67	0.3490
293.93	0.3552
294.20	0.3602
294.47	0.3642
294.73	0.3679
295.00	0.3726
295.27	0.3775
295.53	0.3822
295.80	0.3853
296.07	0.3893
296.33	0.3946
296.60	0.3989
296.87	0.4032
297.13	0.4076
297.40	0.4131
297.67	0.4184
297.93	0.4231
298.20	0.4277
298.47	0.4330
298.73	0.4389
299.00	0.4450
299.27	0.4516
299.53	0.4581
299.80	0.4643
300.07	0.4708
300.33	0.4769
300.60	0.4835
300.87	0.4900
301.13	0.4965
301.40	0.5033
301.67	0.5107
301.93	0.5181
302.20	0.5246
302.47	0.5318
302.73	0.5395
303.00	0.5479
303.27	0.5569
303.53	0.5661
303.80	0.5761
304.07	0.5866
304.33	0.5968
304.60	0.6070
304.87	0.6160
305.13	0.6250
305.40	0.6349
305.67	0.6454
305.93	0.6556
306.20	0.6665
306.47	0.6776
306.73	0.6891
307.00	0.7012
307.27	0.7129
307.53	0.7250
307.80	0.7371
308.07	0.7495
308.33	0.7616
308.60	0.7730
308.87	0.7854
309.13	0.7994
309.40	0.8136
309.67	0.8272
309.93	0.8412
310.20	0.8563
310.47	0.8715
310.73	0.8864
311.00	0.9025
311.27	0.9195
311.53	0.9362
311.80	0.9520
312.07	0.9675
312.33	0.9833
312.60	0.9991
312.87	1.0165
313.13	1.0338
313.40	1.0511
313.67	1.0679
313.93	1.0846
314.20	1.1001
314.47	1.1153
314.73	1.1314
315.00	1.1484
315.27	1.1654
315.53	1.1825
315.80	1.1995
316.07	1.2156
316.33	1.2314
316.60	1.2463
316.87	1.2608
317.13	1.2751
317.40	1.2893
317.67	1.3026
317.93	1.3150
318.20	1.3271
318.47	1.3392
318.73	1.3512
319.00	1.3621
319.27	1.3723
319.53	1.3819
319.80	1.3906
320.07	1.3983
320.33	1.4039
320.60	1.4082
320.87	1.4120
321.13	1.4141
321.40	1.4154
321.67	1.4166
321.93	1.4172
322.20	1.4166
322.47	1.4144
322.73	1.4123
323.00	1.4107
323.27	1.4076
323.53	1.4042
323.80	1.4008
324.07	1.3968
324.33	1.3928
324.60	1.3884
324.87	1.3841
325.13	1.3791
325.40	1.3739
325.67	1.3689
325.93	1.3639
326.20	1.3590
326.47	1.3547
326.73	1.3506
327.00	1.3457
327.27	1.3401
327.53	1.3355
327.80	1.3320
328.07	1.3296
328.33	1.3268
328.60	1.3243
328.87	1.3218
329.13	1.3190
329.40	1.3150
329.67	1.3116
329.93	1.3079
330.20	1.3048
330.47	1.3023
330.73	1.3001
331.00	1.2980
331.27	1.2967
331.53	1.2952
331.80	1.2943
332.07	1.2930
332.33	1.2921
332.60	1.2912
332.87	1.2899
333.13	1.2890
333.40	1.2878
333.67	1.2862
333.93	1.2850
334.20	1.2828
334.47	1.2800
334.73	1.2772
335.00	1.2754
335.27	1.2744
335.53	1.2732
335.80	1.2717
336.07	1.2707
336.33	1.2695
336.60	1.2682
336.87	1.2679
337.13	1.2676
337.40	1.2664
337.67	1.2658
337.93	1.2648
338.20	1.2639
338.47	1.2624
338.73	1.2608
339.00	1.2599
339.27	1.2590
339.53	1.2574
339.80	1.2568
340.07	1.2562
340.33	1.2562
340.60	1.2559
340.87	1.2552
341.13	1.2549
341.40	1.2549
341.67	1.2556
341.93	1.2552
342.20	1.2543
342.47	1.2540
342.73	1.2531
343.00	1.2518
343.27	1.2506
343.53	1.2487
343.80	1.2478
344.07	1.2478
344.33	1.2481
344.60	1.2481
344.87	1.2481
345.13	1.2478
345.40	1.2469
345.67	1.2463
345.93	1.2450
346.20	1.2441
346.47	1.2432
346.73	1.2425
347.00	1.2425
347.27	1.2422
347.53	1.2416
347.80	1.2413
348.07	1.2407
348.33	1.2404
348.60	1.2407
348.87	1.2398
349.13	1.2401
349.40	1.2404
349.67	1.2404
349.93	1.2410
350.20	1.2413
350.47	1.2410
350.73	1.2410
351.00	1.2407
351.27	1.2419
351.53	1.2429
351.80	1.2422
352.07	1.2410
352.33	1.2407
352.60	1.2410
352.87	1.2404
353.13	1.2398
353.40	1.2401
353.67	1.2404
353.93	1.2419
354.20	1.2438
354.47	1.2453
354.73	1.2456
355.00	1.2453
355.27	1.2459
355.53	1.2466
355.80	1.2472
356.07	1.2475
356.33	1.2469
356.60	1.2441
356.87	1.2401
357.13	1.2370
357.40	1.2351
357.67	1.2342
357.93	1.2336
358.20	1.2323
358.47	1.2317
358.73	1.2305
359.00	1.2274
359.27	1.2237
359.53	1.2206
359.80	1.2184
360.07	1.2165
360.33	1.2137
360.60	1.2116
360.87	1.2103
361.13	1.2094
361.40	1.2085
361.67	1.2082
361.93	1.2075
362.20	1.2069
362.47	1.2069
362.73	1.2069
363.00	1.2060
363.27	1.2038
363.53	1.2010
363.80	1.1983
364.07	1.1958
364.33	1.1939
364.60	1.1924
364.87	1.1908
365.13	1.1893
365.40	1.1874
365.67	1.1852
365.93	1.1825
366.20	1.1797
366.47	1.1772
366.73	1.1756
367.00	1.1735
367.27	1.1707
367.53	1.1676
367.80	1.1642
368.07	1.1614
368.33	1.1589
368.60	1.1568
368.87	1.1537
369.13	1.1506
369.40	1.1472
369.67	1.1444
369.93	1.1413
370.20	1.1376
370.47	1.1335
370.73	1.1289
371.00	1.1239
371.27	1.1196
371.53	1.1159
371.80	1.1125
372.07	1.1078
372.33	1.1029
372.60	1.0973
372.87	1.0920
373.13	1.0874
373.40	1.0827
373.67	1.0781
373.93	1.0731
374.20	1.0679
374.47	1.0611
374.73	1.0533
375.00	1.0450
375.27	1.0369
375.53	1.0288
375.80	1.0217
376.07	1.0134
376.33	1.0028
376.60	0.9908
376.87	0.9787
377.13	0.9663
377.40	0.9536
377.67	0.9412
377.93	0.9276
378.20	0.9124
378.47	0.8966
378.73	0.8811
379.00	0.8653
379.27	0.8492
379.53	0.8306
379.80	0.8105
380.07	0.7894
380.33	0.7687
380.60	0.7476
380.87	0.7266
381.13	0.7037
381.40	0.6795
381.67	0.6532
381.93	0.6253
382.20	0.5956
382.47	0.5637
382.73	0.5302
383.00	0.4952
383.27	0.4599
383.53	0.4221
383.80	0.3816
384.07	0.3394
384.33	0.2948
384.60	0.2478
384.87	0.1988
385.13	0.1477
385.40	0.0957
385.67	0.0421
385.93	-0.0133
386.20	-0.0719
386.47	-0.1335
386.73	-0.1967
387.00	-0.2617
387.27	-0.3295
387.53	-0.4008
387.80	-0.4745
388.07	-0.5491
388.33	-0.6247
388.60	-0.7027
388.87	-0.7820
389.13	-0.8628
389.40	-0.9465
389.67	-1.0313
389.93	-1.1187
390.20	-1.2091
390.47	-1.3032
390.73	-1.4002
391.00	-1.4999
391.27	-1.6034
391.53	-1.7090
391.80	-1.8152
392.07	-1.9239
392.33	-2.0354
392.60	-2.1487
392.87	-2.2658
393.13	-2.3863
393.40	-2.5092
393.67	-2.6341
393.93	-2.7610
394.20	-2.8889
394.47	-3.0203
394.73	-3.1553
395.00	-3.2947
395.27	-3.4384
395.53	-3.5867
395.80	-3.7388
396.07	-3.8939
396.33	-4.0528
396.60	-4.2154
396.87	-4.3836
397.13	-4.5558
397.40	-4.7332
397.67	-4.9160
397.93	-5.1027
398.20	-5.2941
398.47	-5.4914
398.73	-5.6946
399.00	-5.9049
399.27	-6.1217
399.53	-6.3450
399.80	-6.5748
400.07	-6.8126
400.33	-7.0573
400.60	-7.3094
400.87	-7.5683
401.13	-7.8356
401.40	-8.1097
401.67	-8.3906
401.93	-8.6786
402.20	-8.9731
402.47	-9.2735
402.73	-9.5808
403.00	-9.8945
403.27	-10.2141
403.53	-10.5378
403.80	-10.8645
404.07	-11.1953
404.33	-11.5279
404.60	-11.8605
404.87	-12.1904
405.13	-12.5143
405.40	-12.8302
405.67	-13.1356
405.93	-13.4279
406.20	-13.7045
406.47	-13.9634
406.73	-14.2035
407.00	-14.4261
407.27	-14.6287
407.53	-14.8065
407.80	-14.9588
408.07	-15.0874
408.33	-15.1958
408.60	-15.2853
408.87	-15.3556
409.13	-15.4042
409.40	-15.4296
409.67	-15.4271
409.93	-15.3865
410.20	-15.2995
410.47	-15.1635
410.73	-14.9824
411.00	-14.7637
411.27	-14.5187
411.53	-14.2642
411.80	-14.0145
412.07	-13.7801
412.33	-13.5682
412.60	-13.3843
412.87	-13.2325
413.13	-13.1176
413.40	-13.0380
413.67	-12.9882
413.93	-12.9591
414.20	-12.9451
414.47	-12.9377
414.73	-12.9287
415.00	-12.9086
415.27	-12.8649
415.53	-12.7847
415.80	-12.6509
416.07	-12.4443
416.33	-12.1445
416.60	-11.7311
416.87	-11.1878
417.13	-10.5083
417.40	-9.6997
417.67	-8.7833
417.93	-7.7925
418.20	-6.7640
418.47	-5.7339
418.73	-4.7339
419.00	-3.7998
419.27	-2.9658
419.53	-2.2581
419.80	-1.6898
420.07	-1.2559
420.33	-0.9378
420.60	-0.7123
420.87	-0.5559
421.13	-0.4494
421.40	-0.3769
421.67	-0.3274
421.93	-0.2930
422.20	-0.2691
422.47	-0.2533
422.73	-0.2425
423.00	-0.2348
423.27	-0.2295
423.53	-0.2261
423.80	-0.2233
424.07	-0.2227
424.33	-0.2233
424.60	-0.2255
424.87	-0.2283
425.13	-0.2320
425.40	-0.2363
425.67	-0.2419
425.93	-0.2481
426.20	-0.2546
426.47	-0.2623
426.73	-0.2716
427.00	-0.2809
427.27	-0.2917
427.53	-0.3035
427.80	-0.3159
428.07	-0.3283
428.33	-0.3404
428.60	-0.3528
428.87	-0.3664
429.13	-0.3816
429.40	-0.3983
429.67	-0.4166
429.93	-0.4361
430.20	-0.4562
430.47	-0.4791
430.73	-0.5023
431.00	-0.5265
431.27	-0.5510
431.53	-0.5761
431.80	-0.6024
432.07	-0.6306
432.33	-0.6600
432.60	-0.6903
432.87	-0.7219
433.13	-0.7541
433.40	-0.7873
433.67	-0.8217
433.93	-0.8573
434.20	-0.8935
434.47	-0.9310
434.73	-0.9688
435.00	-1.0075
435.27	-1.0480
435.53	-1.0902
435.80	-1.1332
436.07	-1.1769
436.33	-1.2221
436.60	-1.2676
436.87	-1.3138
437.13	-1.3605
437.40	-1.4085
437.67	-1.4575
437.93	-1.5067
438.20	-1.5566
438.47	-1.6071
438.73	-1.6575
439.00	-1.7077
439.27	-1.7570
439.53	-1.8074
439.80	-1.8585
440.07	-1.9097
440.33	-1.9611
440.60	-2.0119
440.87	-2.0623
441.13	-2.1131
441.40	-2.1633
441.67	-2.2119
441.93	-2.2609
442.20	-2.3098
442.47	-2.3581
442.73	-2.4058
443.00	-2.4532
443.27	-2.4978
443.53	-2.5402
443.80	-2.5805
444.07	-2.6198
444.33	-2.6573
444.60	-2.6932
444.87	-2.7267
445.13	-2.7579
445.40	-2.7874
445.67	-2.8140
445.93	-2.8375
446.20	-2.8586
446.47	-2.8769
446.73	-2.8933
447.00	-2.9075
447.27	-2.9181
447.53	-2.9233
447.80	-2.9255
448.07	-2.9233
448.33	-2.9190
448.60	-2.9122
448.87	-2.9020
449.13	-2.8899
449.40	-2.8750
449.67	-2.8564
449.93	-2.8351
450.20	-2.8112
450.47	-2.7852
450.73	-2.7552
451.00	-2.7214
451.27	-2.6861
451.53	-2.6486
451.80	-2.6096
452.07	-2.5684
452.33	-2.5015
452.60	-2.4207
452.87	-2.3597
453.13	-2.3178
453.40	-2.2835
453.67	-2.2475
453.93	-2.2067
454.20	-2.1621
454.47	-2.1128
454.73	-2.0608
455.00	-2.0072
455.27	-1.9533
455.53	-1.8997
455.80	-1.8459
456.07	-1.7917
456.33	-1.7384
456.60	-1.6854
456.87	-1.6328
457.13	-1.5814
457.40	-1.5300
457.67	-1.4782
457.93	-1.4281
458.20	-1.3797
458.47	-1.3333
458.73	-1.2884
459.00	-1.2447
459.27	-1.2023
459.53	-1.1611
459.80	-1.1208
460.07	-1.0812
460.33	-1.0412
460.60	-1.0031
460.87	-0.9650
461.13	-0.9282
461.40	-0.8926
461.67	-0.8582
461.93	-0.8254
462.20	-0.7944
462.47	-0.7659
462.73	-0.7387
463.00	-0.7126
463.27	-0.6869
463.53	-0.6622
463.80	-0.6383
464.07	-0.6145
464.33	-0.5903
464.60	-0.5671
464.87	-0.5451
465.13	-0.5246
465.40	-0.5061
465.67	-0.4890
465.93	-0.4729
466.20	-0.4568
466.47	-0.4420
466.73	-0.4283
467.00	-0.4156
467.27	-0.4035
467.53	-0.3921
467.80	-0.3809
468.07	-0.3692
468.33	-0.3580
468.60	-0.3466
468.87	-0.3367
469.13	-0.3277
469.40	-0.3187
469.67	-0.3109
469.93	-0.3026
470.20	-0.2936
470.47	-0.2846
470.73	-0.2756
471.00	-0.2676
471.27	-0.2598
471.53	-0.2509
471.80	-0.2410
472.07	-0.2320
472.33	-0.2245
472.60	-0.2180
472.87	-0.2115
473.13	-0.2044
473.40	-0.1976
473.67	-0.1914
473.93	-0.1855
474.20	-0.1802
474.47	-0.1753
474.73	-0.1719
475.00	-0.1685
475.27	-0.1635
475.53	-0.1589
475.80	-0.1545
476.07	-0.1508
476.33	-0.1468
476.60	-0.1425
476.87	-0.1378
477.13	-0.1329
477.40	-0.1276
477.67	-0.1236
477.93	-0.1195
478.20	-0.1152
478.47	-0.1115
478.73	-0.1081
479.00	-0.1056
479.27	-0.1044
479.53	-0.1041
479.80	-0.1028
480.07	-0.1007
480.33	-0.0969
480.60	-0.0932
480.87	-0.0895
481.13	-0.0867
481.40	-0.0824
481.67	-0.0784
481.93	-0.0743
482.20	-0.0712
482.47	-0.0694
482.73	-0.0688
483.00	-0.0688
483.27	-0.0678
483.53	-0.0660
483.80	-0.0638
484.07	-0.0616
484.33	-0.0588
484.60	-0.0576
484.87	-0.0567
485.13	-0.0573
485.40	-0.0567
485.67	-0.0554
485.93	-0.0545
486.20	-0.0551
486.47	-0.0551
486.73	-0.0545
487.00	-0.0523
487.27	-0.0505
487.53	-0.0486
487.80	-0.0471
488.07	-0.0458
488.33	-0.0455
488.60	-0.0449
488.87	-0.0443
489.13	-0.0430
489.40	-0.0412
489.67	-0.0387
489.93	-0.0365
490.20	-0.0350
490.47	-0.0325
490.73	-0.0310
491.00	-0.0291
491.27	-0.0276
491.53	-0.0263
491.80	-0.0251
492.07	-0.0238
492.33	-0.0226
492.60	-0.0208
492.87	-0.0186
493.13	-0.0164
493.40	-0.0139
493.67	-0.0118
493.93	-0.0099
494.20	-0.0065
494.47	-0.0031
494.73	6.1941e-004
495.00	0.0046
495.27	0.0077
495.53	0.0105
495.80	0.0127
496.07	0.0136
496.33	0.0149
496.60	0.0167
496.87	0.0186
497.13	0.0204
497.40	0.0226
497.67	0.0260
497.93	0.0307
498.20	0.0347
498.47	0.0369
498.73	0.0381
499.00	0.0396
499.27	0.0418
499.53	0.0446
499.80	0.0468
500.07	0.0499
500.33	0.0539
500.60	0.0573
500.87	0.0607
501.13	0.0644
501.40	0.0678
501.67	0.0700
501.93	0.0731
502.20	0.0771
502.47	0.0818
502.73	0.0858
503.00	0.0889
503.27	0.0923
503.53	0.0969
503.80	0.1022
504.07	0.1072
504.33	0.1121
504.60	0.1180
504.87	0.1239
505.13	0.1298
505.40	0.1347
505.67	0.1397
505.93	0.1446
506.20	0.1499
506.47	0.1545
506.73	0.1604
507.00	0.1679
507.27	0.1753
507.53	0.1812
507.80	0.1874
508.07	0.1929
508.33	0.1988
508.60	0.2050
508.87	0.2134
509.13	0.2221
509.40	0.2320
509.67	0.2406
509.93	0.2478
510.20	0.2546
510.47	0.2626
510.73	0.2713
511.00	0.2812
511.27	0.2921
511.53	0.3017
511.80	0.3122
512.07	0.3227
512.33	0.3332
512.60	0.3441
512.87	0.3552
513.13	0.3667
513.40	0.3785
513.67	0.3908
513.93	0.4035
514.20	0.4166
514.47	0.4311
514.73	0.4466
515.00	0.4612
515.27	0.4757
515.53	0.4900
515.80	0.5042
516.07	0.5197
516.33	0.5358
516.60	0.5531
516.87	0.5714
517.13	0.5878
517.40	0.6030
517.67	0.6185
517.93	0.6358
518.20	0.6556
518.47	0.6767
518.73	0.6975
519.00	0.7170
519.27	0.7356
519.53	0.7541
519.80	0.7740
520.07	0.7928
520.33	0.8108
520.60	0.8374
520.87	0.8737
521.13	0.8975
521.40	0.9099
521.67	0.9164
521.93	0.9226
522.20	0.9300
522.47	0.9393
522.73	0.9496
523.00	0.9601
523.27	0.9706
523.53	0.9790
523.80	0.9855
524.07	0.9908
524.33	0.9935
524.60	0.9942
524.87	0.9929
525.13	0.9898
525.40	0.9842
525.67	0.9762
525.93	0.9663
526.20	0.9539
526.47	0.9393
526.73	0.9220
527.00	0.9022
527.27	0.8814
527.53	0.8585
527.80	0.8337
528.07	0.8080
528.33	0.7814
528.60	0.7535
528.87	0.7244
529.13	0.6934
529.40	0.6625
529.67	0.6306
529.93	0.5996
530.20	0.5692
530.47	0.5398
530.73	0.5107
531.00	0.4807
531.27	0.4516
531.53	0.4246
531.80	0.3992
532.07	0.3747
532.33	0.3521
532.60	0.3332
532.87	0.3159
533.13	0.2982
533.40	0.2806
533.67	0.2645
533.93	0.2487
534.20	0.2344
534.47	0.2205
534.73	0.2087
535.00	0.1995
535.27	0.1926
535.53	0.1871
535.80	0.1824
536.07	0.1778
536.33	0.1731
536.60	0.1694
536.87	0.1669
537.13	0.1638
537.40	0.1595
537.67	0.1564
537.93	0.1527
538.20	0.1493
538.47	0.1474
538.73	0.1465
539.00	0.1446
539.27	0.1418
539.53	0.1381
539.80	0.1344
540.07	0.1319
540.33	0.1285
540.60	0.1257
540.87	0.1236
541.13	0.1223
541.40	0.1205
541.67	0.1177
541.93	0.1155
542.20	0.1143
542.47	0.1112
542.73	0.1065
543.00	0.1025
543.27	0.0997
543.53	0.0985
543.80	0.0982
544.07	0.0991
544.33	0.0997
544.60	0.1003
544.87	0.1003
545.13	0.0997
545.40	0.0994
545.67	0.0991
545.93	0.0976
546.20	0.0945
546.47	0.0917
546.73	0.0907
547.00	0.0914
547.27	0.0923
547.53	0.0929
547.80	0.0920
548.07	0.0892
548.33	0.0867
548.60	0.0842
548.87	0.0839
549.13	0.0842
549.40	0.0852
549.67	0.0858
549.93	0.0858
550.00	0.0858