File: MP6/data/DSC/50K-mt.txt
Filename:	C:\Program Files\Pyris\Data\F-Praktikum\WS1819\BA-C-04\Pd-Ni-P_50k-m.dsd

Temperature (°C)	Heat Flow Endo Up (mW)
200.00	0.0204
200.34	0.0204
200.67	0.0205
201.00	0.0210
201.34	0.0148
201.67	-0.0025
202.00	-0.0311
202.34	-0.0690
202.67	-0.1110
203.00	-0.1533
203.34	-0.1917
203.67	-0.2218
204.00	-0.2418
204.34	-0.2486
204.67	-0.2424
205.00	-0.2237
205.34	-0.1958
205.67	-0.1619
206.00	-0.1233
206.34	-0.0818
206.67	-0.0387
207.00	0.0037
207.34	0.0446
207.67	0.0827
208.00	0.1179
208.34	0.1494
208.67	0.1777
209.00	0.2029
209.34	0.2250
209.67	0.2442
210.00	0.2604
210.34	0.2753
210.67	0.2887
211.00	0.3005
211.34	0.3113
211.67	0.3225
212.00	0.3333
212.34	0.3441
212.67	0.3553
213.00	0.4167
213.34	0.5714
213.67	0.7579
214.00	0.9091
214.34	0.9952
214.67	1.0162
215.00	0.9885
215.34	0.9310
215.67	0.8607
216.00	0.7894
216.34	0.7248
216.67	0.6696
217.00	0.6257
217.34	0.5918
217.67	0.5671
218.00	0.5495
218.34	0.5381
218.67	0.5313
219.00	0.5279
219.34	0.5263
219.67	0.5267
220.00	0.5276
220.34	0.5288
220.67	0.5307
221.00	0.5325
221.34	0.5344
221.67	0.5365
222.00	0.5393
222.34	0.5427
222.67	0.5461
223.00	0.5498
223.34	0.5535
223.67	0.5569
224.00	0.5597
224.34	0.5625
224.67	0.5649
225.00	0.5671
225.34	0.5693
225.67	0.5711
226.00	0.5726
226.34	0.5742
226.67	0.5754
227.00	0.5770
227.34	0.5785
227.67	0.5791
228.00	0.5797
228.34	0.5798
228.67	0.5801
229.00	0.5804
229.34	0.5807
229.67	0.5819
230.00	0.5832
230.34	0.5847
230.67	0.5856
231.00	0.5862
231.34	0.5856
231.67	0.5850
232.00	0.5844
232.34	0.5844
232.67	0.5844
233.00	0.5847
233.34	0.5853
233.67	0.5862
234.00	0.5865
234.34	0.5862
234.67	0.5865
235.00	0.5865
235.34	0.5862
235.67	0.5850
236.00	0.5838
236.34	0.5819
236.67	0.5804
237.00	0.5791
237.34	0.5779
237.67	0.5770
238.00	0.5757
238.34	0.5745
238.67	0.5733
239.00	0.5720
239.34	0.5708
239.67	0.5689
240.00	0.5662
240.34	0.5631
240.67	0.5597
241.00	0.5560
241.34	0.5523
241.67	0.5486
242.00	0.5449
242.34	0.5405
242.67	0.5356
243.00	0.5303
243.34	0.5254
243.67	0.5198
244.00	0.5140
244.34	0.5081
244.67	0.5007
245.00	0.4927
245.34	0.4856
245.67	0.4794
246.00	0.4745
246.34	0.4699
246.67	0.4662
247.00	0.4621
247.34	0.4581
247.67	0.4538
248.00	0.4495
248.34	0.4439
248.67	0.4384
249.00	0.4328
249.34	0.4276
249.67	0.4217
250.00	0.4158
250.34	0.4093
250.67	0.4025
251.00	0.3954
251.34	0.3887
251.67	0.3819
252.00	0.3751
252.34	0.3686
252.67	0.3621
253.00	0.3553
253.34	0.3482
253.67	0.3405
254.00	0.3325
254.34	0.3248
254.67	0.3167
255.00	0.3090
255.34	0.3010
255.67	0.2924
256.00	0.2831
256.34	0.2741
256.67	0.2652
257.00	0.2565
257.34	0.2473
257.67	0.2371
258.00	0.2263
258.34	0.2161
258.67	0.2078
259.00	0.2013
259.34	0.1957
259.67	0.1920
260.00	0.1883
260.34	0.1855
260.67	0.1819
261.00	0.1775
261.34	0.1723
261.67	0.1664
262.00	0.1602
262.34	0.1540
262.67	0.1479
263.00	0.1420
263.34	0.1361
263.67	0.1306
264.00	0.1253
264.34	0.1201
264.67	0.1148
265.00	0.1096
265.34	0.1050
265.67	0.1000
266.00	0.0957
266.34	0.0920
266.67	0.0877
267.00	0.0837
267.34	0.0790
267.67	0.0741
268.00	0.0691
268.34	0.0642
268.67	0.0590
269.00	0.0543
269.34	0.0506
269.67	0.0472
270.00	0.0435
270.34	0.0398
270.67	0.0358
271.00	0.0315
271.34	0.0272
271.67	0.0225
272.00	0.0179
272.34	0.0133
272.67	0.0093
273.00	0.0052
273.34	9.3349e-004
273.67	-0.0025
274.00	-0.0055
274.34	-0.0083
274.67	-0.0105
275.00	-0.0123
275.34	-0.0142
275.67	-0.0163
276.00	-0.0191
276.34	-0.0222
276.67	-0.0256
277.00	-0.0296
277.34	-0.0346
277.67	-0.0392
278.00	-0.0435
278.34	-0.0472
278.67	-0.0503
279.00	-0.0522
279.34	-0.0531
279.67	-0.0534
280.00	-0.0531
280.34	-0.0522
280.67	-0.0512
281.00	-0.0506
281.34	-0.0506
281.67	-0.0519
282.00	-0.0546
282.34	-0.0599
282.67	-0.0664
283.00	-0.0722
283.34	-0.0772
283.67	-0.0803
284.00	-0.0824
284.34	-0.0827
284.67	-0.0824
285.00	-0.0809
285.34	-0.0781
285.67	-0.0741
286.00	-0.0691
286.34	-0.0642
286.67	-0.0596
287.00	-0.0546
287.34	-0.0500
287.67	-0.0463
288.00	-0.0426
288.34	-0.0392
288.67	-0.0358
289.00	-0.0327
289.34	-0.0293
289.67	-0.0256
290.00	-0.0219
290.34	-0.0188
290.67	-0.0157
291.00	-0.0123
291.34	-0.0083
291.67	-0.0037
292.00	0.0019
292.34	0.0077
292.67	0.0136
293.00	0.0198
293.34	0.0259
293.67	0.0327
294.00	0.0398
294.34	0.0473
294.67	0.0553
295.00	0.0639
295.34	0.0729
295.67	0.0831
296.00	0.0936
296.34	0.1044
296.67	0.1149
297.00	0.1244
297.34	0.1343
297.67	0.1435
298.00	0.1528
298.34	0.1617
298.67	0.1704
299.00	0.1797
299.34	0.1895
299.67	0.2003
300.00	0.2111
300.34	0.2226
300.67	0.2340
301.00	0.2451
301.34	0.2562
301.67	0.2676
302.00	0.2800
302.34	0.2933
302.67	0.3075
303.00	0.3229
303.34	0.3387
303.67	0.3553
304.00	0.3723
304.34	0.3899
304.67	0.4087
305.00	0.4282
305.34	0.4492
305.67	0.4705
306.00	0.4924
306.34	0.5146
306.67	0.5368
307.00	0.5591
307.34	0.5813
307.67	0.6044
308.00	0.6285
308.34	0.6541
308.67	0.6795
309.00	0.7063
309.34	0.7335
309.67	0.7615
310.00	0.7903
310.34	0.8199
310.67	0.8508
311.00	0.8826
311.34	0.9156
311.67	0.9492
312.00	0.9841
312.34	1.0199
312.67	1.0567
313.00	1.0946
313.34	1.1329
313.67	1.1724
314.00	1.2123
314.34	1.2530
314.67	1.2953
315.00	1.3400
315.34	1.3854
315.67	1.4311
316.00	1.4768
316.34	1.5219
316.67	1.5682
317.00	1.6151
317.34	1.6626
317.67	1.7111
318.00	1.7602
318.34	1.8096
318.67	1.8590
319.00	1.9087
319.34	1.9584
319.67	2.0078
320.00	2.0572
320.34	2.1062
320.67	2.1553
321.00	2.2041
321.34	2.2532
321.67	2.3016
322.00	2.3501
322.34	2.3964
322.67	2.4415
323.00	2.4844
323.34	2.5254
323.67	2.5646
324.00	2.6014
324.34	2.6360
324.67	2.6681
325.00	2.6974
325.34	2.7239
325.67	2.7474
326.00	2.7681
326.34	2.7854
326.67	2.7993
327.00	2.8095
327.34	2.8169
327.67	2.8199
328.00	2.8202
328.34	2.8178
328.67	2.8131
329.00	2.8067
329.34	2.7980
329.67	2.7881
330.00	2.7776
330.34	2.7668
330.67	2.7551
331.00	2.7421
331.34	2.7286
331.67	2.7143
332.00	2.6995
332.34	2.6841
332.67	2.6690
333.00	2.6548
333.34	2.6406
333.67	2.6264
334.00	2.6131
334.34	2.5998
334.67	2.5872
335.00	2.5758
335.34	2.5653
335.67	2.5560
336.00	2.5477
336.34	2.5396
336.67	2.5316
337.00	2.5236
337.34	2.5162
337.67	2.5088
338.00	2.5017
338.34	2.4952
338.67	2.4887
339.00	2.4822
339.34	2.4757
339.67	2.4690
340.00	2.4631
340.34	2.4572
340.67	2.4520
341.00	2.4476
341.34	2.4439
341.67	2.4402
342.00	2.4368
342.34	2.4328
342.67	2.4291
343.00	2.4254
343.34	2.4214
343.67	2.4177
344.00	2.4140
344.34	2.4112
344.67	2.4091
345.00	2.4075
345.34	2.4069
345.67	2.4066
346.00	2.4063
346.34	2.4066
346.67	2.4072
347.00	2.4075
347.34	2.4078
347.67	2.4081
348.00	2.4078
348.34	2.4075
348.67	2.4078
349.00	2.4078
349.34	2.4081
349.67	2.4091
350.00	2.4103
350.34	2.4118
350.67	2.4128
351.00	2.4137
351.34	2.4143
351.67	2.4143
352.00	2.4140
352.34	2.4134
352.67	2.4122
353.00	2.4109
353.34	2.4088
353.67	2.4072
354.00	2.4060
354.34	2.4057
354.67	2.4051
355.00	2.4041
355.34	2.4029
355.67	2.4010
356.00	2.3986
356.34	2.3961
356.67	2.3942
357.00	2.3924
357.34	2.3912
357.67	2.3905
358.00	2.3899
358.34	2.3896
358.67	2.3893
359.00	2.3893
359.34	2.3893
359.67	2.3887
360.00	2.3884
360.34	2.3881
360.67	2.3878
361.00	2.3881
361.34	2.3887
361.67	2.3890
362.00	2.3887
362.34	2.3874
362.67	2.3856
363.00	2.3822
363.34	2.3791
363.67	2.3757
364.00	2.3726
364.34	2.3702
364.67	2.3680
365.00	2.3659
365.34	2.3637
365.67	2.3615
366.00	2.3594
366.34	2.3575
366.67	2.3554
367.00	2.3535
367.34	2.3513
367.67	2.3486
368.00	2.3458
368.34	2.3424
368.67	2.3399
369.00	2.3381
369.34	2.3378
369.67	2.3381
370.00	2.3387
370.34	2.3405
370.67	2.3424
371.00	2.3449
371.34	2.3473
371.67	2.3504
372.00	2.3535
372.34	2.3572
372.67	2.3609
373.00	2.3637
373.34	2.3658
373.67	2.3680
374.00	2.3696
374.34	2.3720
374.67	2.3745
375.00	2.3779
375.34	2.3810
375.67	2.3838
376.00	2.3850
376.34	2.3844
376.67	2.3822
377.00	2.3782
377.34	2.3729
377.67	2.3662
378.00	2.3584
378.34	2.3498
378.67	2.3411
379.00	2.3316
379.34	2.3211
379.67	2.3103
380.00	2.2992
380.34	2.2893
380.67	2.2816
381.00	2.2754
381.34	2.2708
381.67	2.2658
382.00	2.2603
382.34	2.2535
382.67	2.2451
383.00	2.2343
383.34	2.2208
383.67	2.2059
384.00	2.1896
384.34	2.1717
384.67	2.1516
385.00	2.1300
385.34	2.1059
385.67	2.0800
386.00	2.0513
386.34	2.0213
386.67	1.9898
387.00	1.9562
387.34	1.9207
387.67	1.8821
388.00	1.8411
388.34	1.7975
388.67	1.7525
389.00	1.7055
389.34	1.6558
389.67	1.6040
390.00	1.5503
390.34	1.4941
390.67	1.4351
391.00	1.3740
391.34	1.3110
391.67	1.2459
392.00	1.1789
392.34	1.1088
392.67	1.0354
393.00	0.9579
393.34	0.8748
393.67	0.7859
394.00	0.6912
394.34	0.5899
394.67	0.4828
395.00	0.3692
395.34	0.2488
395.67	0.1204
396.00	-0.0167
396.34	-0.1633
396.67	-0.3189
397.00	-0.4831
397.34	-0.6560
397.67	-0.8378
398.00	-1.0267
398.34	-1.2234
398.67	-1.4277
399.00	-1.6410
399.34	-1.8639
399.67	-2.0967
400.00	-2.3396
400.34	-2.5931
400.67	-2.8567
401.00	-3.1311
401.34	-3.4167
401.67	-3.7133
402.00	-4.0208
402.34	-4.3400
402.67	-4.6703
403.00	-5.0126
403.34	-5.3676
403.67	-5.7353
404.00	-6.1150
404.34	-6.5080
404.67	-6.9136
405.00	-7.3328
405.34	-7.7659
405.67	-8.2132
406.00	-8.6762
406.34	-9.1547
406.67	-9.6496
407.00	-10.1614
407.34	-10.6908
407.67	-11.2388
408.00	-11.8065
408.34	-12.3939
408.67	-13.0017
409.00	-13.6296
409.34	-14.2785
409.67	-14.9481
410.00	-15.6380
410.34	-16.3496
410.67	-17.0839
411.00	-17.8436
411.34	-18.6299
411.67	-19.4452
412.00	-20.2916
412.34	-21.1689
412.67	-22.0802
413.00	-23.0245
413.34	-24.0003
413.67	-25.0073
414.00	-26.0439
414.34	-27.1077
414.67	-28.1930
415.00	-29.2948
415.34	-30.4061
415.67	-31.5183
416.00	-32.6198
416.34	-33.6974
416.67	-34.7374
417.00	-35.7256
417.34	-36.6489
417.67	-37.4935
418.00	-38.2461
418.34	-38.8919
418.67	-39.4191
419.00	-39.8171
419.34	-40.0785
419.67	-40.1974
420.00	-40.1711
420.34	-40.0004
420.67	-39.6917
421.00	-39.2549
421.34	-38.7048
421.67	-38.0609
422.00	-37.3450
422.34	-36.5807
422.67	-35.7907
423.00	-34.9992
423.34	-34.2290
423.67	-33.4983
424.00	-32.8226
424.34	-32.2117
424.67	-31.6690
425.00	-31.1927
425.34	-30.7775
425.67	-30.4150
426.00	-30.0921
426.34	-29.7912
426.67	-29.4883
427.00	-29.1571
427.34	-28.7669
427.67	-28.2823
428.00	-27.6670
428.34	-26.8820
428.67	-25.8893
429.00	-24.6579
429.34	-23.1709
429.67	-21.4388
430.00	-19.5029
430.34	-17.4334
430.67	-15.3161
431.00	-13.2379
431.34	-11.2740
431.67	-9.4793
432.00	-7.8870
432.34	-6.5108
432.67	-5.3477
433.00	-4.3827
433.34	-3.5952
433.67	-2.9614
434.00	-2.4564
434.34	-2.0582
434.67	-1.7461
435.00	-1.5028
435.34	-1.3136
435.67	-1.1669
436.00	-1.0530
436.34	-0.9659
436.67	-0.8989
437.00	-0.8480
437.34	-0.8103
437.67	-0.7829
438.00	-0.7650
438.34	-0.7554
438.67	-0.7514
439.00	-0.7533
439.34	-0.7607
439.67	-0.7730
440.00	-0.7906
440.34	-0.8125
440.67	-0.8385
441.00	-0.8681
441.34	-0.9005
441.67	-0.9366
442.00	-0.9758
442.34	-1.0175
442.67	-1.0626
443.00	-1.1101
443.34	-1.1607
443.67	-1.2142
444.00	-1.2716
444.34	-1.3324
444.67	-1.3969
445.00	-1.4660
445.34	-1.5395
445.67	-1.6173
446.00	-1.6994
446.34	-1.7862
446.67	-1.8769
447.00	-1.9723
447.34	-2.0723
447.67	-2.1761
448.00	-2.2835
448.34	-2.3961
448.67	-2.5138
449.00	-2.6363
449.34	-2.7641
449.67	-2.8959
450.00	-3.0327
450.34	-3.1734
450.67	-3.3192
451.00	-3.4695
451.34	-3.6245
451.67	-3.7834
452.00	-3.9461
452.34	-4.1128
452.67	-4.2820
453.00	-4.4539
453.34	-4.6280
453.67	-4.8040
454.00	-4.9818
454.34	-5.1608
454.67	-5.3405
455.00	-5.5211
455.34	-5.7017
455.67	-5.8823
456.00	-6.0610
456.34	-6.2379
456.67	-6.4123
457.00	-6.5836
457.34	-6.7506
457.67	-6.9139
458.00	-7.0720
458.34	-7.2242
458.67	-7.3699
459.00	-7.5082
459.34	-7.6382
459.67	-7.7595
460.00	-7.8709
460.34	-7.9725
460.67	-8.0620
461.00	-8.1395
461.34	-8.2040
461.67	-8.2562
462.00	-8.2954
462.34	-8.3213
462.67	-8.3333
463.00	-8.3318
463.34	-8.3163
463.67	-8.2873
464.00	-8.2444
464.34	-8.1879
464.67	-8.1178
465.00	-8.0351
465.34	-7.9410
465.67	-7.8360
466.00	-7.7203
466.34	-7.5943
466.67	-7.4591
467.00	-7.3159
467.34	-7.1658
467.67	-7.0099
468.00	-6.8488
468.34	-6.6833
468.67	-6.5139
469.00	-6.3416
469.34	-6.1672
469.67	-5.9912
470.00	-5.8144
470.34	-5.6375
470.67	-5.4606
471.00	-5.2846
471.34	-5.1102
471.67	-4.9380
472.00	-4.7682
472.34	-4.6015
472.67	-4.4385
473.00	-4.2795
473.34	-4.1239
473.67	-3.9656
474.00	-3.8023
474.34	-3.6380
474.67	-3.4701
475.00	-3.2969
475.34	-3.1259
475.67	-2.9651
476.00	-2.8203
476.34	-2.6919
476.67	-2.5792
477.00	-2.4795
477.34	-2.3897
477.67	-2.3066
478.00	-2.2294
478.34	-2.1566
478.67	-2.0871
479.00	-2.0214
479.34	-1.9590
479.67	-1.9001
480.00	-1.8445
480.34	-1.7917
480.67	-1.7408
481.00	-1.6917
481.34	-1.6439
481.67	-1.5975
482.00	-1.5534
482.34	-1.5111
482.67	-1.4713
483.00	-1.4324
483.34	-1.3960
483.67	-1.3611
484.00	-1.3277
484.34	-1.2944
484.67	-1.2623
485.00	-1.2314
485.34	-1.2021
485.67	-1.1746
486.00	-1.1487
486.34	-1.1246
486.67	-1.1015
487.00	-1.0792
487.34	-1.0586
487.67	-1.0385
488.00	-1.0203
488.34	-1.0033
488.67	-0.9869
489.00	-0.9718
489.34	-0.9567
489.67	-0.9425
490.00	-0.9286
490.34	-0.9147
490.67	-0.8999
491.00	-0.8848
491.34	-0.8693
491.67	-0.8545
492.00	-0.8409
492.34	-0.8273
492.67	-0.8147
493.00	-0.8030
493.34	-0.7916
493.67	-0.7811
494.00	-0.7715
494.34	-0.7629
494.67	-0.7542
495.00	-0.7462
495.34	-0.7382
495.67	-0.7304
496.00	-0.7224
496.34	-0.7138
496.67	-0.7048
497.00	-0.6958
497.34	-0.6869
497.67	-0.6767
498.00	-0.6668
498.34	-0.6563
498.67	-0.6471
499.00	-0.6381
499.34	-0.6298
499.67	-0.6209
500.00	-0.6116
500.34	-0.6008
500.67	-0.5894
501.00	-0.5770
501.34	-0.5644
501.67	-0.5514
502.00	-0.5384
502.34	-0.5258
502.67	-0.5131
503.00	-0.5020
503.34	-0.4918
503.67	-0.4832
504.00	-0.4770
504.34	-0.4724
504.67	-0.4687
505.00	-0.4668
505.34	-0.4653
505.67	-0.4643
506.00	-0.4643
506.34	-0.4649
506.67	-0.4659
507.00	-0.4668
507.34	-0.4674
507.67	-0.4680
508.00	-0.4689
508.34	-0.4689
508.67	-0.4686
509.00	-0.4683
509.34	-0.4671
509.67	-0.4655
510.00	-0.4634
510.34	-0.4603
510.67	-0.4566
511.00	-0.4520
511.34	-0.4470
511.67	-0.4412
512.00	-0.4347
512.34	-0.4282
512.67	-0.4217
513.00	-0.4155
513.34	-0.4094
513.67	-0.4026
514.00	-0.3955
514.34	-0.3878
514.67	-0.3785
515.00	-0.3671
515.34	-0.3544
515.67	-0.3408
516.00	-0.3270
516.34	-0.3125
516.67	-0.2976
517.00	-0.2816
517.34	-0.2643
517.67	-0.2461
518.00	-0.2276
518.34	-0.2087
518.67	-0.1896
519.00	-0.1701
519.34	-0.1498
519.67	-0.1285
520.00	-0.1056
520.34	-0.0812
520.67	-0.0547
521.00	-0.0269
521.34	0.0021
521.67	0.0324
522.00	0.0645
522.34	0.0987
522.67	0.1349
523.00	0.1728
523.34	0.2136
523.67	0.2565
524.00	0.3016
524.34	0.3485
524.67	0.3969
525.00	0.4463
525.34	0.4970
525.67	0.5476
526.00	0.5998
526.34	0.6522
526.67	0.7053
527.00	0.7584
527.34	0.8124
527.67	0.8680
528.00	0.9261
528.34	0.9859
528.67	1.0471
529.00	1.1094
529.34	1.1727
529.67	1.2357
530.00	1.2980
530.34	1.3585
530.67	1.4181
531.00	1.4746
531.34	1.5274
531.67	1.5756
532.00	1.6191
532.34	1.6577
532.67	1.6923
533.00	1.7219
533.34	1.7463
533.67	1.7657
534.00	1.7799
534.34	1.7877
534.67	1.7883
535.00	1.7808
535.34	1.7651
535.67	1.7410
536.00	1.7089
536.34	1.6694
536.67	1.6228
537.00	1.5703
537.34	1.5126
537.67	1.4493
538.00	1.3811
538.34	1.3079
538.67	1.2311
539.00	1.1505
539.34	1.0671
539.67	0.9832
540.00	0.8989
540.34	0.8162
540.67	0.7350
541.00	0.6569
541.34	0.5816
541.67	0.5103
542.00	0.4430
542.34	0.3797
542.67	0.3204
543.00	0.2664
543.34	0.2170
543.67	0.1716
544.00	0.1293
544.34	0.0910
544.67	0.0561
545.00	0.0243
545.34	-0.0040
545.67	-0.0290
546.00	-0.0503
546.34	-0.0685
546.67	-0.0834
547.00	-0.0957
547.34	-0.1056
547.67	-0.1136
548.00	-0.1210
548.34	-0.1275
548.67	-0.1331
549.00	-0.1389
549.34	-0.1445
549.67	-0.1510
550.00	-0.1584