File: MP6/data/DSC/blei-50k-m-heiz.txt
Filename:	C:\Program Files\Pyris\Data\F-Praktikum\WS1819\BA-C-04\blei_50k-m.dsd

Temperature (°C)	Heat Flow Endo Up (mW)
100.17	0.0022
100.50	0.0022
100.84	0.0043
101.17	0.0130
101.50	0.0343
101.84	0.0837
102.17	0.1806
102.50	0.3386
102.84	0.5597
103.17	0.8353
103.50	1.1471
103.84	1.4737
104.17	1.7929
104.50	2.0880
104.84	2.3455
105.17	2.5585
105.50	2.7239
105.84	2.8440
106.17	2.9240
106.50	2.9703
106.84	2.9904
107.17	2.9904
107.50	2.9765
107.84	2.9536
108.17	2.9261
108.50	2.8968
108.84	2.8681
109.17	2.8416
109.50	2.8175
109.84	2.7971
110.17	2.7798
110.50	2.7662
110.84	2.7557
111.17	2.7477
111.50	2.7428
111.84	2.7403
112.17	2.7394
112.50	2.7400
112.84	2.7412
113.17	2.7431
113.50	2.7449
113.84	2.7468
114.17	2.7480
114.50	2.7489
114.84	2.7496
115.17	2.7493
115.50	2.7483
115.84	2.7465
116.17	2.7440
116.50	2.7409
116.84	2.7375
117.17	2.7338
117.50	2.7301
117.84	2.7264
118.17	2.7227
118.50	2.7190
118.84	2.7153
119.17	2.7116
119.50	2.7076
119.84	2.7039
120.17	2.7002
120.50	2.6965
120.84	2.6928
121.17	2.6891
121.50	2.6850
121.84	2.6810
122.17	2.6767
122.50	2.6724
122.84	2.6678
123.17	2.6634
123.50	2.6588
123.84	2.6539
124.17	2.6486
124.50	2.6434
124.84	2.6381
125.17	2.6329
125.50	2.6276
125.84	2.6224
126.17	2.6171
126.50	2.6122
126.84	2.6076
127.17	2.6036
127.50	2.5995
127.84	2.5955
128.17	2.5915
128.50	2.5872
128.84	2.5826
129.17	2.5779
129.50	2.5730
129.84	2.5681
130.17	2.5628
130.50	2.5576
130.84	2.5523
131.17	2.5471
131.50	2.5418
131.84	2.5366
132.17	2.5316
132.50	2.5267
132.84	2.5221
133.17	2.5171
133.50	2.5122
133.84	2.5072
134.17	2.5026
134.50	2.4980
134.84	2.4933
135.17	2.4890
135.50	2.4847
135.84	2.4807
136.17	2.4764
136.50	2.4720
136.84	2.4671
137.17	2.4619
137.50	2.4566
137.84	2.4514
138.17	2.4464
138.50	2.4412
138.84	2.4362
139.17	2.4310
139.50	2.4257
139.84	2.4205
140.17	2.4149
140.50	2.4091
140.84	2.4032
141.17	2.3973
141.50	2.3912
141.84	2.3847
142.17	2.3782
142.50	2.3717
142.84	2.3655
143.17	2.3594
143.50	2.3535
143.84	2.3483
144.17	2.3430
144.50	2.3381
144.84	2.3328
145.17	2.3279
145.50	2.3229
145.84	2.3183
146.17	2.3134
146.50	2.3084
146.84	2.3038
147.17	2.2989
147.50	2.2942
147.84	2.2893
148.17	2.2844
148.50	2.2794
148.84	2.2745
149.17	2.2695
149.50	2.2646
149.84	2.2597
150.17	2.2550
150.50	2.2504
150.84	2.2455
151.17	2.2405
151.50	2.2356
151.84	2.2310
152.17	2.2260
152.50	2.2208
152.84	2.2155
153.17	2.2100
153.50	2.2044
153.84	2.1982
154.17	2.1924
154.50	2.1868
154.84	2.1819
155.17	2.1769
155.50	2.1723
155.84	2.1677
156.17	2.1630
156.50	2.1587
156.84	2.1544
157.17	2.1498
157.50	2.1454
157.84	2.1408
158.17	2.1362
158.50	2.1312
158.84	2.1260
159.17	2.1211
159.50	2.1155
159.84	2.1096
160.17	2.1041
160.50	2.0985
160.84	2.0933
161.17	2.0883
161.50	2.0834
161.84	2.0785
162.17	2.0735
162.50	2.0692
162.84	2.0649
163.17	2.0602
163.50	2.0556
163.84	2.0510
164.17	2.0467
164.50	2.0423
164.84	2.0386
165.17	2.0346
165.50	2.0309
165.84	2.0275
166.17	2.0251
166.50	2.0229
166.84	2.0207
167.17	2.0189
167.50	2.0167
167.84	2.0146
168.17	2.0121
168.50	2.0084
168.84	2.0047
169.17	2.0007
169.50	1.9967
169.84	1.9933
170.17	1.9902
170.50	1.9874
170.84	1.9846
171.17	1.9821
171.50	1.9794
171.84	1.9769
172.17	1.9744
172.50	1.9716
172.84	1.9689
173.17	1.9658
173.50	1.9630
173.84	1.9602
174.17	1.9574
174.50	1.9547
174.84	1.9519
175.17	1.9488
175.50	1.9460
175.84	1.9426
176.17	1.9395
176.50	1.9361
176.84	1.9324
177.17	1.9287
177.50	1.9250
177.84	1.9213
178.17	1.9173
178.50	1.9133
178.84	1.9090
179.17	1.9047
179.50	1.9000
179.84	1.8951
180.17	1.8905
180.50	1.8858
180.84	1.8815
181.17	1.8778
181.50	1.8744
181.84	1.8710
182.17	1.8676
182.50	1.8642
182.84	1.8611
183.17	1.8587
183.50	1.8559
183.84	1.8537
184.17	1.8516
184.50	1.8488
184.84	1.8463
185.17	1.8432
185.50	1.8405
185.84	1.8377
186.17	1.8349
186.50	1.8321
186.84	1.8296
187.17	1.8272
187.50	1.8250
187.84	1.8225
188.17	1.8204
188.50	1.8182
188.84	1.8161
189.17	1.8139
189.50	1.8114
189.84	1.8087
190.17	1.8059
190.50	1.8034
190.84	1.8006
191.17	1.7982
191.50	1.7954
191.84	1.7929
192.17	1.7904
192.50	1.7883
192.84	1.7864
193.17	1.7846
193.50	1.7827
193.84	1.7803
194.17	1.7778
194.50	1.7750
194.84	1.7722
195.17	1.7695
195.50	1.7670
195.84	1.7648
196.17	1.7630
196.50	1.7608
196.84	1.7583
197.17	1.7556
197.50	1.7528
197.84	1.7497
198.17	1.7469
198.50	1.7441
198.84	1.7417
199.17	1.7398
199.50	1.7383
199.84	1.7361
200.17	1.7336
200.50	1.7312
200.84	1.7287
201.17	1.7265
201.50	1.7244
201.84	1.7219
202.17	1.7198
202.50	1.7173
202.84	1.7151
203.17	1.7130
203.50	1.7108
203.84	1.7093
204.17	1.7074
204.50	1.7059
204.84	1.7043
205.17	1.7028
205.50	1.7009
205.84	1.6991
206.17	1.6969
206.50	1.6947
206.84	1.6929
207.17	1.6910
207.50	1.6892
207.84	1.6876
208.17	1.6864
208.50	1.6855
208.84	1.6843
209.17	1.6827
209.50	1.6805
209.84	1.6781
210.17	1.6756
210.50	1.6728
210.84	1.6707
211.17	1.6685
211.50	1.6670
211.84	1.6660
212.17	1.6654
212.50	1.6654
212.84	1.6654
213.17	1.6651
213.50	1.6648
213.84	1.6642
214.17	1.6636
214.50	1.6630
214.84	1.6626
215.17	1.6626
215.50	1.6623
215.84	1.6620
216.17	1.6614
216.50	1.6605
216.84	1.6596
217.17	1.6589
217.50	1.6577
217.84	1.6565
218.17	1.6552
218.50	1.6534
218.84	1.6515
219.17	1.6494
219.50	1.6472
219.84	1.6450
220.17	1.6426
220.50	1.6401
220.84	1.6376
221.17	1.6355
221.50	1.6336
221.84	1.6318
222.17	1.6299
222.50	1.6278
222.84	1.6256
223.17	1.6231
223.50	1.6204
223.84	1.6176
224.17	1.6154
224.50	1.6133
224.84	1.6117
225.17	1.6105
225.50	1.6092
225.84	1.6080
226.17	1.6065
226.50	1.6049
226.84	1.6034
227.17	1.6015
227.50	1.5997
227.84	1.5978
228.17	1.5960
228.50	1.5941
228.84	1.5923
229.17	1.5907
229.50	1.5889
229.84	1.5870
230.17	1.5855
230.50	1.5836
230.84	1.5824
231.17	1.5808
231.50	1.5796
231.84	1.5787
232.17	1.5778
232.50	1.5768
232.84	1.5759
233.17	1.5747
233.50	1.5737
233.84	1.5725
234.17	1.5716
234.50	1.5707
234.84	1.5700
235.17	1.5691
235.50	1.5682
235.84	1.5673
236.17	1.5663
236.50	1.5654
236.84	1.5642
237.17	1.5626
237.50	1.5614
237.84	1.5598
238.17	1.5583
238.50	1.5568
238.84	1.5552
239.17	1.5540
239.50	1.5527
239.84	1.5518
240.17	1.5509
240.50	1.5503
240.84	1.5497
241.17	1.5487
241.50	1.5472
241.84	1.5456
242.17	1.5441
242.50	1.5429
242.84	1.5416
243.17	1.5407
243.50	1.5404
243.84	1.5398
244.17	1.5395
244.50	1.5389
244.84	1.5382
245.17	1.5370
245.50	1.5358
245.84	1.5345
246.17	1.5330
246.50	1.5311
246.84	1.5293
247.17	1.5281
247.50	1.5271
247.84	1.5265
248.17	1.5259
248.50	1.5250
248.84	1.5237
249.17	1.5228
249.50	1.5222
249.84	1.5216
250.17	1.5210
250.50	1.5203
250.84	1.5200
251.17	1.5194
251.50	1.5191
251.84	1.5182
252.17	1.5172
252.50	1.5166
252.84	1.5163
253.17	1.5157
253.50	1.5151
253.84	1.5142
254.17	1.5139
254.50	1.5132
254.84	1.5126
255.17	1.5120
255.50	1.5108
255.84	1.5098
256.17	1.5086
256.50	1.5071
256.84	1.5058
257.17	1.5043
257.50	1.5027
257.84	1.5006
258.17	1.4987
258.50	1.4969
258.84	1.4950
259.17	1.4932
259.50	1.4913
259.84	1.4898
260.17	1.4882
260.50	1.4867
260.84	1.4848
261.17	1.4830
261.50	1.4811
261.84	1.4796
262.17	1.4780
262.50	1.4771
262.84	1.4765
263.17	1.4762
263.50	1.4765
263.84	1.4774
264.17	1.4780
264.50	1.4780
264.84	1.4771
265.17	1.4746
265.50	1.4713
265.84	1.4669
266.17	1.4623
266.50	1.4574
266.84	1.4530
267.17	1.4490
267.50	1.4456
267.84	1.4429
268.17	1.4407
268.50	1.4391
268.84	1.4376
269.17	1.4367
269.50	1.4361
269.84	1.4358
270.17	1.4348
270.50	1.4336
270.84	1.4317
271.17	1.4299
271.50	1.4280
271.84	1.4262
272.17	1.4246
272.50	1.4234
272.84	1.4222
273.17	1.4209
273.50	1.4197
273.84	1.4185
274.17	1.4166
274.50	1.4148
274.84	1.4129
275.17	1.4114
275.50	1.4095
275.84	1.4077
276.17	1.4058
276.50	1.4043
276.84	1.4024
277.17	1.4012
277.50	1.3996
277.84	1.3984
278.17	1.3972
278.50	1.3956
278.84	1.3941
279.17	1.3928
279.50	1.3916
279.84	1.3907
280.17	1.3894
280.50	1.3885
280.84	1.3876
281.17	1.3867
281.50	1.3857
281.84	1.3851
282.17	1.3845
282.50	1.3839
282.84	1.3830
283.17	1.3814
283.50	1.3796
283.84	1.3780
284.17	1.3765
284.50	1.3756
284.84	1.3743
285.17	1.3737
285.50	1.3731
285.84	1.3731
286.17	1.3737
286.50	1.3740
286.84	1.3746
287.17	1.3752
287.50	1.3759
287.84	1.3768
288.17	1.3774
288.50	1.3780
288.84	1.3793
289.17	1.3805
289.50	1.3817
289.84	1.3830
290.17	1.3845
290.50	1.3854
290.84	1.3864
291.17	1.3873
291.50	1.3876
291.84	1.3882
292.17	1.3882
292.50	1.3879
292.84	1.3873
293.17	1.3864
293.50	1.3854
293.84	1.3848
294.17	1.3845
294.50	1.3839
294.84	1.3830
295.17	1.3820
295.50	1.3811
295.84	1.3802
296.17	1.3796
296.50	1.3790
296.84	1.3786
297.17	1.3777
297.50	1.3762
297.84	1.3746
298.17	1.3731
298.50	1.3722
298.84	1.3715
299.17	1.3709
299.50	1.3709
299.84	1.3709
300.17	1.3709
300.50	1.3703
300.84	1.3694
301.17	1.3685
301.50	1.3675
301.84	1.3669
302.17	1.3669
302.50	1.3672
302.84	1.3681
303.17	1.3691
303.50	1.3703
303.84	1.3715
304.17	1.3731
304.50	1.3743
304.84	1.3756
305.17	1.3765
305.50	1.3774
305.84	1.3783
306.17	1.3799
306.50	1.3811
306.84	1.3827
307.17	1.3842
307.50	1.3854
307.84	1.3867
308.17	1.3873
308.50	1.3879
308.84	1.3888
309.17	1.3894
309.50	1.3907
309.84	1.3922
310.17	1.3941
310.50	1.3959
310.84	1.3978
311.17	1.3996
311.50	1.4012
311.84	1.4027
312.17	1.4043
312.50	1.4058
312.84	1.4070
313.17	1.4086
313.50	1.4098
313.84	1.4107
314.17	1.4126
314.50	1.4157
314.84	1.4191
315.17	1.4219
315.50	1.4237
315.84	1.4246
316.17	1.4249
316.50	1.4246
316.84	1.4243
317.17	1.4237
317.50	1.4231
317.84	1.4228
318.17	1.4225
318.50	1.4228
318.84	1.4231
319.17	1.4237
319.50	1.4246
319.84	1.4259
320.17	1.4268
320.50	1.4280
320.84	1.4293
321.17	1.4305
321.50	1.4314
321.84	1.4320
322.17	1.4327
322.50	1.4333
322.84	1.4339
323.17	1.4348
323.50	1.4358
323.84	1.4370
324.17	1.4385
324.50	1.4407
324.84	1.4456
325.17	1.4675
325.50	1.5521
325.84	1.7938
326.17	2.3226
326.50	3.2676
326.84	4.7212
327.17	6.7244
327.50	9.2668
327.84	12.3053
328.17	15.7760
328.50	19.6727
328.84	23.7688
329.17	28.0813
329.50	32.5521
329.84	37.1344
330.17	41.7865
330.50	46.4679
330.84	51.1317
331.17	55.7180
331.50	60.1515
331.84	64.2859
332.17	67.5297
332.50	68.7583
332.84	67.2158
333.17	62.9835
333.50	56.7534
333.84	49.4243
334.17	41.8205
334.50	34.5540
334.84	28.0081
335.17	22.3685
335.50	17.6776
335.84	13.8855
336.17	10.8918
336.50	8.5744
336.84	6.8086
337.17	5.4803
337.50	4.4912
337.84	3.7593
338.17	3.2188
338.50	2.8193
338.84	2.5224
339.17	2.2995
339.50	2.1303
339.84	2.0004
340.17	1.8988
340.50	1.8185
340.84	1.7543
341.17	1.7022
341.50	1.6599
341.84	1.6250
342.17	1.5963
342.50	1.5725
342.84	1.5531
343.17	1.5373
343.50	1.5247
343.84	1.5148
344.17	1.5068
344.50	1.5003
344.84	1.4950
345.17	1.4904
345.50	1.4861
345.84	1.4821
346.17	1.4780
346.50	1.4737
346.84	1.4694
347.17	1.4654
347.50	1.4620
347.84	1.4592
348.17	1.4567
348.50	1.4549
348.84	1.4530
349.17	1.4518
349.50	1.4509
349.84	1.4500
350.17	1.4490
350.50	1.4478
350.84	1.4466
351.17	1.4450
351.50	1.4438
351.84	1.4425
352.17	1.4416
352.50	1.4410
352.84	1.4407
353.17	1.4407
353.50	1.4404
353.84	1.4398
354.17	1.4388
354.50	1.4379
354.84	1.4376
355.17	1.4373
355.50	1.4379
355.84	1.4385
356.17	1.4395
356.50	1.4401
356.84	1.4407
357.17	1.4413
357.50	1.4422
357.84	1.4425
358.17	1.4425
358.50	1.4422
358.84	1.4416
359.17	1.4407
359.50	1.4398
359.84	1.4382
360.17	1.4364
360.50	1.4345
360.84	1.4333
361.17	1.4320
361.50	1.4314
361.84	1.4308
362.17	1.4302
362.50	1.4296
362.84	1.4296
363.17	1.4290
363.50	1.4280
363.84	1.4271
364.17	1.4259
364.50	1.4253
364.84	1.4246
365.17	1.4240
365.50	1.4237
365.84	1.4234
366.17	1.4231
366.50	1.4228
366.84	1.4228
367.17	1.4225
367.50	1.4225
367.84	1.4225
368.17	1.4225
368.50	1.4228
368.84	1.4231
369.17	1.4231
369.50	1.4231
369.84	1.4231
370.00	1.4231