File: MP6/data/DSC/blei-50k-m-kuehl.txt
Filename:	C:\Program Files\Pyris\Data\F-Praktikum\WS1819\BA-C-04\blei_50k-m.dsd

Temperature (°C)	Heat Flow Endo Up (mW)
369.83	1.4231
369.50	1.4262
369.17	1.4737
368.83	1.6694
368.50	2.0954
368.17	2.7372
367.83	3.4877
367.50	4.2008
367.17	4.7456
366.83	5.0410
366.50	5.0605
366.17	4.8243
365.83	4.3807
365.50	3.7914
365.17	3.1172
364.83	2.4128
364.50	1.7204
364.17	1.0699
363.83	0.4791
363.50	-0.0432
363.17	-0.4961
362.83	-0.8832
362.50	-1.2116
362.17	-1.4888
361.83	-1.7231
361.50	-1.9226
361.17	-2.0924
360.83	-2.2368
360.50	-2.3594
360.17	-2.4625
359.83	-2.5495
359.50	-2.6242
359.17	-2.6888
358.83	-2.7462
358.50	-2.7977
358.17	-2.8428
357.83	-2.8814
357.50	-2.9132
357.17	-2.9388
356.83	-2.9592
356.50	-2.9755
356.17	-2.9885
355.83	-2.9993
355.50	-3.0079
355.17	-3.0154
354.83	-3.0218
354.50	-3.0277
354.17	-3.0333
353.83	-3.0382
353.50	-3.0434
353.17	-3.0487
352.83	-3.0536
352.50	-3.0586
352.17	-3.0638
351.83	-3.0691
351.50	-3.0746
351.17	-3.0802
350.83	-3.0857
350.50	-3.0913
350.17	-3.0972
349.83	-3.1027
349.50	-3.1086
349.17	-3.1141
348.83	-3.1197
348.50	-3.1253
348.17	-3.1308
347.83	-3.1364
347.50	-3.1419
347.17	-3.1475
346.83	-3.1527
346.50	-3.1580
346.17	-3.1629
345.83	-3.1672
345.50	-3.1672
345.17	-3.1604
344.83	-3.1503
344.50	-3.1419
344.17	-3.1385
343.83	-3.1407
343.50	-3.1478
343.17	-3.1589
342.83	-3.1716
342.50	-3.1851
342.17	-3.1981
341.83	-3.2108
341.50	-3.2225
341.17	-3.2330
340.83	-3.2422
340.50	-3.2503
340.17	-3.2574
339.83	-3.2639
339.50	-3.2700
339.17	-3.2753
338.83	-3.2805
338.50	-3.2855
338.17	-3.2904
337.83	-3.2957
337.50	-3.3009
337.17	-3.3061
336.83	-3.3108
336.50	-3.3160
336.17	-3.3207
335.83	-3.3256
335.50	-3.3305
335.17	-3.3358
334.83	-3.3407
334.50	-3.3457
334.17	-3.3506
333.83	-3.3555
333.50	-3.3608
333.17	-3.3657
332.83	-3.3707
332.50	-3.3753
332.17	-3.3796
331.83	-3.3836
331.50	-3.3873
331.17	-3.3910
330.83	-3.3951
330.50	-3.3994
330.17	-3.4037
329.83	-3.4083
329.50	-3.4133
329.17	-3.4185
328.83	-3.4235
328.50	-3.4284
328.17	-3.4330
327.83	-3.4377
327.50	-3.4420
327.17	-3.4460
326.83	-3.4500
326.50	-3.4540
326.17	-3.4577
325.83	-3.4617
325.50	-3.4661
325.17	-3.4701
324.83	-3.4744
324.50	-3.4787
324.17	-3.4833
323.83	-3.4877
323.50	-3.4920
323.17	-3.4966
322.83	-3.5009
322.50	-3.5056
322.17	-3.5105
321.83	-3.5154
321.50	-3.5204
321.17	-3.5256
320.83	-3.5309
320.50	-3.5361
320.17	-3.5411
319.83	-3.5460
319.50	-3.5506
319.17	-3.5553
318.83	-3.5596
318.50	-3.5636
318.17	-3.5679
317.83	-3.5722
317.50	-3.5766
317.17	-3.5809
316.83	-3.5852
316.50	-3.5898
316.17	-3.5942
315.83	-3.5985
315.50	-3.6031
315.17	-3.6074
314.83	-3.7136
314.50	-4.8123
314.17	-8.1206
313.83	-13.9794
313.50	-21.8718
313.17	-30.9364
312.83	-40.3483
312.50	-49.4802
312.17	-57.9283
311.83	-65.4855
311.50	-72.0660
311.17	-77.5442
310.83	-81.3526
310.50	-82.4086
310.17	-80.0372
309.83	-74.4843
309.50	-66.6601
309.17	-57.6761
308.83	-48.5189
308.50	-39.9093
308.17	-32.2789
307.83	-25.8179
307.50	-20.5423
307.17	-16.3610
306.83	-13.1283
306.50	-10.6803
306.17	-8.8578
305.83	-7.5189
305.50	-6.5447
305.17	-5.8402
304.83	-5.3309
304.50	-4.9614
304.17	-4.6910
303.83	-4.4900
303.50	-4.3381
303.17	-4.2211
302.83	-4.1288
302.50	-4.0554
302.17	-3.9958
301.83	-3.9473
301.50	-3.9081
301.17	-3.8760
300.83	-3.8498
300.50	-3.8291
300.17	-3.8124
299.83	-3.7994
299.50	-3.7896
299.17	-3.7825
298.83	-3.7772
298.50	-3.7735
298.17	-3.7714
297.83	-3.7698
297.50	-3.7692
297.17	-3.7689
296.83	-3.7695
296.50	-3.7704
296.17	-3.7720
295.83	-3.7738
295.50	-3.7757
295.17	-3.7775
294.83	-3.7797
294.50	-3.7819
294.17	-3.7840
293.83	-3.7865
293.50	-3.7893
293.17	-3.7923
292.83	-3.7951
292.50	-3.7976
292.17	-3.8001
291.83	-3.8028
291.50	-3.8053
291.17	-3.8081
290.83	-3.8106
290.50	-3.8133
290.17	-3.8161
289.83	-3.8192
289.50	-3.8226
289.17	-3.8254
288.83	-3.8285
288.50	-3.8316
288.17	-3.8343
287.83	-3.8374
287.50	-3.8408
287.17	-3.8439
286.83	-3.8467
286.50	-3.8495
286.17	-3.8525
285.83	-3.8550
285.50	-3.8575
285.17	-3.8596
284.83	-3.8624
284.50	-3.8652
284.17	-3.8680
283.83	-3.8711
283.50	-3.8738
283.17	-3.8766
282.83	-3.8794
282.50	-3.8822
282.17	-3.8853
281.83	-3.8877
281.50	-3.8902
281.17	-3.8927
280.83	-3.8945
280.50	-3.8967
280.17	-3.8985
279.83	-3.9007
279.50	-3.9032
279.17	-3.9056
278.83	-3.9081
278.50	-3.9106
278.17	-3.9127
277.83	-3.9149
277.50	-3.9171
277.17	-3.9192
276.83	-3.9214
276.50	-3.9232
276.17	-3.9251
275.83	-3.9272
275.50	-3.9294
275.17	-3.9316
274.83	-3.9337
274.50	-3.9362
274.17	-3.9390
273.83	-3.9418
273.50	-3.9445
273.17	-3.9473
272.83	-3.9501
272.50	-3.9529
272.17	-3.9553
271.83	-3.9578
271.50	-3.9600
271.17	-3.9627
270.83	-3.9655
270.50	-3.9683
270.17	-3.9708
269.83	-3.9732
269.50	-3.9754
269.17	-3.9773
268.83	-3.9788
268.50	-3.9807
268.17	-3.9825
267.83	-3.9844
267.50	-3.9859
267.17	-3.9874
266.83	-3.9893
266.50	-3.9911
266.17	-3.9930
265.83	-3.9949
265.50	-3.9967
265.17	-3.9986
264.83	-4.0004
264.50	-4.0026
264.17	-4.0047
263.83	-4.0057
263.50	-4.0057
263.17	-4.0057
262.83	-4.0057
262.50	-4.0066
262.17	-4.0081
261.83	-4.0100
261.50	-4.0109
261.17	-4.0106
260.83	-4.0103
260.50	-4.0109
260.17	-4.0121
259.83	-4.0146
259.50	-4.0177
259.17	-4.0214
258.83	-4.0251
258.50	-4.0285
258.17	-4.0319
257.83	-4.0347
257.50	-4.0371
257.17	-4.0390
256.83	-4.0405
256.50	-4.0421
256.17	-4.0436
255.83	-4.0449
255.50	-4.0464
255.17	-4.0479
254.83	-4.0498
254.50	-4.0520
254.17	-4.0538
253.83	-4.0560
253.50	-4.0578
253.17	-4.0597
252.83	-4.0615
252.50	-4.0631
252.17	-4.0646
251.83	-4.0665
251.50	-4.0683
251.17	-4.0702
250.83	-4.0720
250.50	-4.0739
250.17	-4.0754
249.83	-4.0770
249.50	-4.0782
249.17	-4.0797
248.83	-4.0813
248.50	-4.0831
248.17	-4.0847
247.83	-4.0865
247.50	-4.0881
247.17	-4.0899
246.83	-4.0915
246.50	-4.0930
246.17	-4.0943
245.83	-4.0955
245.50	-4.0970
245.17	-4.0983
244.83	-4.0995
244.50	-4.1010
244.17	-4.1026
243.83	-4.1038
243.50	-4.1047
243.17	-4.1057
242.83	-4.1069
242.50	-4.1078
242.17	-4.1091
241.83	-4.1103
241.50	-4.1115
241.17	-4.1128
240.83	-4.1140
240.50	-4.1152
240.17	-4.1165
239.83	-4.1180
239.50	-4.1193
239.17	-4.1208
238.83	-4.1217
238.50	-4.1227
238.17	-4.1236
237.83	-4.1245
237.50	-4.1257
237.17	-4.1273
236.83	-4.1291
236.50	-4.1307
236.17	-4.1319
235.83	-4.1331
235.50	-4.1344
235.17	-4.1356
234.83	-4.1369
234.50	-4.1375
234.17	-4.1384
233.83	-4.1390
233.50	-4.1396
233.17	-4.1406
232.83	-4.1415
232.50	-4.1424
232.17	-4.1436
231.83	-4.1446
231.50	-4.1452
231.17	-4.1461
230.83	-4.1473
230.50	-4.1486
230.17	-4.1495
229.83	-4.1511
229.50	-4.1523
229.17	-4.1532
228.83	-4.1538
228.50	-4.1548
228.17	-4.1557
227.83	-4.1566
227.50	-4.1575
227.17	-4.1588
226.83	-4.1597
226.50	-4.1603
226.17	-4.1612
225.83	-4.1622
225.50	-4.1628
225.17	-4.1631
224.83	-4.1634
224.50	-4.1637
224.17	-4.1637
223.83	-4.1637
223.50	-4.1634
223.17	-4.1631
222.83	-4.1631
222.50	-4.1631
222.17	-4.1637
221.83	-4.1646
221.50	-4.1653
221.17	-4.1662
220.83	-4.1671
220.50	-4.1680
220.17	-4.1690
219.83	-4.1699
219.50	-4.1708
219.17	-4.1714
218.83	-4.1720
218.50	-4.1727
218.17	-4.1736
217.83	-4.1739
217.50	-4.1739
217.17	-4.1739
216.83	-4.1739
216.50	-4.1745
216.17	-4.1754
215.83	-4.1764
215.50	-4.1773
215.17	-4.1779
214.83	-4.1785
214.50	-4.1788
214.17	-4.1795
213.83	-4.1801
213.50	-4.1810
213.17	-4.1819
212.83	-4.1832
212.50	-4.1841
212.17	-4.1850
211.83	-4.1859
211.50	-4.1866
211.17	-4.1866
210.83	-4.1862
210.50	-4.1862
210.17	-4.1859
209.83	-4.1856
209.50	-4.1856
209.17	-4.1853
208.83	-4.1853
208.50	-4.1853
208.17	-4.1853
207.83	-4.1856
207.50	-4.1853
207.17	-4.1850
206.83	-4.1847
206.50	-4.1844
206.17	-4.1841
205.83	-4.1841
205.50	-4.1838
205.17	-4.1838
204.83	-4.1841
204.50	-4.1838
204.17	-4.1835
203.83	-4.1825
203.50	-4.1819
203.17	-4.1813
202.83	-4.1807
202.50	-4.1801
202.17	-4.1795
201.83	-4.1791
201.50	-4.1791
201.17	-4.1791
200.83	-4.1788
200.50	-4.1788
200.17	-4.1785
199.83	-4.1782
199.50	-4.1776
199.17	-4.1770
198.83	-4.1757
198.50	-4.1748
198.17	-4.1739
197.83	-4.1727
197.50	-4.1720
197.17	-4.1711
196.83	-4.1702
196.50	-4.1696
196.17	-4.1686
195.83	-4.1674
195.50	-4.1665
195.17	-4.1653
194.83	-4.1643
194.50	-4.1631
194.17	-4.1628
193.83	-4.1622
193.50	-4.1619
193.17	-4.1619
192.83	-4.1615
192.50	-4.1612
192.17	-4.1609
191.83	-4.1600
191.50	-4.1591
191.17	-4.1582
190.83	-4.1575
190.50	-4.1569
190.17	-4.1563
189.83	-4.1551
189.50	-4.1535
189.17	-4.1514
188.83	-4.1498
188.50	-4.1483
188.17	-4.1470
187.83	-4.1458
187.50	-4.1449
187.17	-4.1436
186.83	-4.1424
186.50	-4.1412
186.17	-4.1399
185.83	-4.1384
185.50	-4.1372
185.17	-4.1369
184.83	-4.1378
184.50	-4.1393
184.17	-4.1402
183.83	-4.1402
183.50	-4.1396
183.17	-4.1381
182.83	-4.1359
182.50	-4.1338
182.17	-4.1316
181.83	-4.1288
181.50	-4.1264
181.17	-4.1236
180.83	-4.1208
180.50	-4.1180
180.17	-4.1152
179.83	-4.1128
179.50	-4.1106
179.17	-4.1085
178.83	-4.1063
178.50	-4.1044
178.17	-4.1029
177.83	-4.1017
177.50	-4.1001
177.17	-4.0989
176.83	-4.0976
176.50	-4.0958
176.17	-4.0936
175.83	-4.0912
175.50	-4.0887
175.17	-4.0868
174.83	-4.0850
174.50	-4.0834
174.17	-4.0819
173.83	-4.0801
173.50	-4.0782
173.17	-4.0763
172.83	-4.0745
172.50	-4.0726
172.17	-4.0711
171.83	-4.0696
171.50	-4.0680
171.17	-4.0668
170.83	-4.0655
170.50	-4.0643
170.17	-4.0625
169.83	-4.0603
169.50	-4.0584
169.17	-4.0563
168.83	-4.0541
168.50	-4.0517
168.17	-4.0492
167.83	-4.0470
167.50	-4.0449
167.17	-4.0427
166.83	-4.0405
166.50	-4.0381
166.17	-4.0359
165.83	-4.0334
165.50	-4.0307
165.17	-4.0279
164.83	-4.0257
164.50	-4.0233
164.17	-4.0214
163.83	-4.0195
163.50	-4.0174
163.17	-4.0149
162.83	-4.0121
162.50	-4.0094
162.17	-4.0063
161.83	-4.0035
161.50	-4.0004
161.17	-3.9976
160.83	-3.9945
160.50	-3.9918
160.17	-3.9893
159.83	-3.9862
159.50	-3.9834
159.17	-3.9800
158.83	-3.9769
158.50	-3.9739
158.17	-3.9705
157.83	-3.9671
157.50	-3.9637
157.17	-3.9603
156.83	-3.9569
156.50	-3.9535
156.17	-3.9507
155.83	-3.9479
155.50	-3.9455
155.17	-3.9427
154.83	-3.9399
154.50	-3.9371
154.17	-3.9340
153.83	-3.9306
153.50	-3.9269
153.17	-3.9232
152.83	-3.9195
152.50	-3.9158
152.17	-3.9121
151.83	-3.9084
151.50	-3.9047
151.17	-3.9010
150.83	-3.8976
150.50	-3.8936
150.17	-3.8899
149.83	-3.8862
149.50	-3.8825
149.17	-3.8788
148.83	-3.8748
148.50	-3.8711
148.17	-3.8667
147.83	-3.8624
147.50	-3.8578
147.17	-3.8529
146.83	-3.8482
146.50	-3.8436
146.17	-3.8387
145.83	-3.8337
145.50	-3.8288
145.17	-3.8245
144.83	-3.8198
144.50	-3.8155
144.17	-3.8112
143.83	-3.8069
143.50	-3.8025
143.17	-3.7982
142.83	-3.7936
142.50	-3.7893
142.17	-3.7846
141.83	-3.7803
141.50	-3.7757
141.17	-3.7707
140.83	-3.7658
140.50	-3.7609
140.17	-3.7559
139.83	-3.7510
139.50	-3.7457
139.17	-3.7405
138.83	-3.7355
138.50	-3.7306
138.17	-3.7257
137.83	-3.7204
137.50	-3.7155
137.17	-3.7105
136.83	-3.7056
136.50	-3.7010
136.17	-3.6960
135.83	-3.6908
135.50	-3.6849
135.17	-3.6794
134.83	-3.6735
134.50	-3.6679
134.17	-3.6627
133.83	-3.6568
133.50	-3.6516
133.17	-3.6460
132.83	-3.6405
132.50	-3.6343
132.17	-3.6278
131.83	-3.6219
131.50	-3.6158
131.17	-3.6099
130.83	-3.6037
130.50	-3.5979
130.17	-3.5917
129.83	-3.5855
129.50	-3.5793
129.17	-3.5735
128.83	-3.5676
128.50	-3.5614
128.17	-3.5556
127.83	-3.5494
127.50	-3.5432
127.17	-3.5371
126.83	-3.5312
126.50	-3.5256
126.17	-3.5201
125.83	-3.5142
125.50	-3.5080
125.17	-3.5016
124.83	-3.4948
124.50	-3.4883
124.17	-3.4812
123.83	-3.4741
123.50	-3.4670
123.17	-3.4602
122.83	-3.4528
122.50	-3.4454
122.17	-3.4373
121.83	-3.4296
121.50	-3.4216
121.17	-3.4139
120.83	-3.4059
120.50	-3.3978
120.17	-3.3895
119.83	-3.3809
119.50	-3.3728
119.17	-3.3645
118.83	-3.3562
118.50	-3.3481
118.17	-3.3398
117.83	-3.3312
117.50	-3.3222
117.17	-3.3129
116.83	-3.3037
116.50	-3.2938
116.17	-3.2836
115.83	-3.2737
115.50	-3.2639
115.17	-3.2534
114.83	-3.2432
114.50	-3.2327
114.17	-3.2222
113.83	-3.2114
113.50	-3.2006
113.17	-3.1898
112.83	-3.1790
112.50	-3.1675
112.17	-3.1558
111.83	-3.1441
111.50	-3.1317
111.17	-3.1194
110.83	-3.1070
110.50	-3.0941
110.17	-3.0811
109.83	-3.0681
109.50	-3.0549
109.17	-3.0413
108.83	-3.0274
108.50	-3.0132
108.17	-2.9990
107.83	-2.9839
107.50	-2.9687
107.17	-2.9530
106.83	-2.9363
106.50	-2.9194
106.17	-2.9021
105.83	-2.8842
105.50	-2.8663
105.17	-2.8480
104.83	-2.8301
104.50	-2.8119
104.17	-2.7937
103.83	-2.7755
103.50	-2.7570
103.17	-2.7381
102.83	-2.7190
102.50	-2.6992
102.17	-2.6798
101.83	-2.6600
101.50	-2.6400
101.17	-2.6196
100.83	-2.5992
100.50	-2.5785
100.17	-2.5576
100.00	-2.5363