File: MP6/data/XRD/Roentgen_Glas.uxd
; (content of file C:\DIFFDAT1\FPraktikum\WS1819\BA-C-04\Roentgen_Glas.raw)
_FILEVERSION = 2
_SAMPLE = Glas
_+SAMPLE =
_SITE = Münster
_USER = "Institut für Materialphysik"
_GONIOMETER_CODE = 0
; Goniometer : D5000 theta/2theta, stage : Unknown
_SAMPLE_CHANGER_CODE = 0
_ATTACHMENTS_CODE = 0
_GONIOMETER_RADIUS = 217.5
_FIXED_DIVSLIT = 0
_FIXED_SAMPLESLIT = 0
_FIXED_DETSLIT = 1
_MONOCHROMATOR = 0
; Incident beam monochromator : None
_SOLLER_SLITS_2 = N
_THIN_FILM = N
_BETA_FILTER = N
_FIXED_ANTISLIT = 0
_ANALYZER_CODE = 0
; Received beam analyzer : None
_DATEMEASURED = "07-Jan-2019 11:30:43"
_WL_UNIT = A
_WL1 = 1.5406
_WL2 = 1.54439
_WL3 = 1.39222
_WLRATIO = 0.5
_ANODE = Cu

; Data for range 1
_DRIVE = COUPLED
_STEPTIME = 2
_STEPSIZE = 0.02
_STEPMODE = C
_START = 20
_THETA = 10
_2THETA = 20
_KHI = 0
_PHI = 0
_X = 0
_Y = 0
_Z = 0
_DIVERGENCE = 0.992
_ANTISCATTER = 0.499
_DETECTOR = 1
; Detector type : Scintillation counter
_HV = 950
_GAIN = 80
_LLD = 0.8
_ULD = 1.6
_DETECTORSLIT = out
_AUX1 = 0
_AUX2 = 0
_AUX3 = 0
_TIMESTARTED = 7
_ROTATION_SPEED = 30
_TEMP_RATE = -1
_TEMP_DELAY = -1
_RANGE_WL = 1.5406
_3DPLANE = 0
_V4_COUNTERS_MASK = 1
_V4_DRIVES_MASK = 0
_V4_ENCODERS_MASK = 0
_2THETACOUNTS = 1
; 2THETA  Cnt1_D1
  20.0000          2
  20.0400          1
  20.0800          1
  20.1200          0
  20.1600          2
  20.2000          3
  20.2400          2
  20.2800          4
  20.3200          2
  20.3600          2
  20.4000          5
  20.4400          2
  20.4800          0
  20.5200          4
  20.5600          1
  20.6000          1
  20.6400          1
  20.6800          3
  20.7200          5
  20.7600          1
  20.8000          1
  20.8400          1
  20.8800          0
  20.9200          4
  20.9600          4
  21.0000          1
  21.0400          1
  21.0800          1
  21.1200          1
  21.1600          0
  21.2000          0
  21.2400          2
  21.2800          2
  21.3200          2
  21.3600          2
  21.4000          1
  21.4400          1
  21.4800          4
  21.5200          5
  21.5600          1
  21.6000          1
  21.6400          1
  21.6800          4
  21.7200          3
  21.7600          3
  21.8000          0
  21.8400          1
  21.8800          0
  21.9200          3
  21.9600          1
  22.0000          1
  22.0400          3
  22.0800          2
  22.1200          1
  22.1600          3
  22.2000          4
  22.2400          1
  22.2800          3
  22.3200          3
  22.3600          2
  22.4000          2
  22.4400          3
  22.4800          1
  22.5200          2
  22.5600          3
  22.6000          2
  22.6400          1
  22.6800          2
  22.7200          1
  22.7600          2
  22.8000          3
  22.8400          1
  22.8800          4
  22.9200          3
  22.9600          6
  23.0000          2
  23.0400          1
  23.0800          3
  23.1200          5
  23.1600          1
  23.2000          2
  23.2400          1
  23.2800          3
  23.3200          3
  23.3600          2
  23.4000          1
  23.4400          0
  23.4800          1
  23.5200          2
  23.5600          1
  23.6000          4
  23.6400          2
  23.6800          4
  23.7200          4
  23.7600          5
  23.8000          4
  23.8400          4
  23.8800          3
  23.9200          1
  23.9600          1
  24.0000          0
  24.0400          3
  24.0800          1
  24.1200          2
  24.1600          0
  24.2000          4
  24.2400          2
  24.2800          4
  24.3200          3
  24.3600          0
  24.4000          2
  24.4400          1
  24.4800          2
  24.5200          2
  24.5600          4
  24.6000          4
  24.6400          0
  24.6800          3
  24.7200          0
  24.7600          2
  24.8000          1
  24.8400          3
  24.8800          7
  24.9200          1
  24.9600          2
  25.0000          3
  25.0400          3
  25.0800          2
  25.1200          3
  25.1600          2
  25.2000          4
  25.2400          4
  25.2800          3
  25.3200          4
  25.3600          2
  25.4000          1
  25.4400          7
  25.4800          2
  25.5200          0
  25.5600          1
  25.6000          3
  25.6400          1
  25.6800          2
  25.7200          0
  25.7600          4
  25.8000          1
  25.8400          3
  25.8800          0
  25.9200          6
  25.9600          1
  26.0000          5
  26.0400          2
  26.0800          4
  26.1200          2
  26.1600          2
  26.2000          1
  26.2400          0
  26.2800          2
  26.3200          6
  26.3600          3
  26.4000          1
  26.4400          1
  26.4800          1
  26.5200          4
  26.5600          2
  26.6000          3
  26.6400          6
  26.6800          2
  26.7200          6
  26.7600          3
  26.8000          3
  26.8400          1
  26.8800          0
  26.9200          0
  26.9600          2
  27.0000          2
  27.0400          3
  27.0800          1
  27.1200          4
  27.1600          2
  27.2000          4
  27.2400          3
  27.2800          0
  27.3200          2
  27.3600          1
  27.4000          3
  27.4400          3
  27.4800          3
  27.5200          5
  27.5600          2
  27.6000          4
  27.6400          4
  27.6800          2
  27.7200          1
  27.7600          4
  27.8000          3
  27.8400          0
  27.8800          0
  27.9200          2
  27.9600          1
  28.0000          5
  28.0400          3
  28.0800          3
  28.1200          1
  28.1600          1
  28.2000          3
  28.2400          3
  28.2800          4
  28.3200          6
  28.3600          4
  28.4000          3
  28.4400          5
  28.4800          1
  28.5200          1
  28.5600          2
  28.6000          3
  28.6400          3
  28.6800          2
  28.7200          3
  28.7600          4
  28.8000          1
  28.8400          2
  28.8800          3
  28.9200          1
  28.9600          2
  29.0000          7
  29.0400          5
  29.0800          4
  29.1200          4
  29.1600          1
  29.2000          1
  29.2400          5
  29.2800          2
  29.3200          4
  29.3600          0
  29.4000          3
  29.4400          2
  29.4800          0
  29.5200          2
  29.5600          4
  29.6000          3
  29.6400          3
  29.6800          2
  29.7200          4
  29.7600          1
  29.8000          3
  29.8400          7
  29.8800          4
  29.9200          2
  29.9600          0
  30.0000          3
  30.0400          3
  30.0800          1
  30.1200          1
  30.1600          3
  30.2000          3
  30.2400          3
  30.2800          3
  30.3200          4
  30.3600          1
  30.4000          2
  30.4400          7
  30.4800          5
  30.5200          1
  30.5600          3
  30.6000          5
  30.6400          4
  30.6800          3
  30.7200          5
  30.7600          3
  30.8000          4
  30.8400          3
  30.8800          3
  30.9200          3
  30.9600          2
  31.0000          8
  31.0400          3
  31.0800          3
  31.1200          4
  31.1600          0
  31.2000          2
  31.2400          3
  31.2800          4
  31.3200          3
  31.3600          1
  31.4000          5
  31.4400          5
  31.4800          4
  31.5200          1
  31.5600          5
  31.6000          6
  31.6400          4
  31.6800          2
  31.7200          3
  31.7600          3
  31.8000          3
  31.8400          8
  31.8800          3
  31.9200          0
  31.9600          8
  32.0000          5
  32.0400          4
  32.0800          2
  32.1200          1
  32.1600          2
  32.2000          5
  32.2400          3
  32.2800          9
  32.3200          3
  32.3600          2
  32.4000          3
  32.4400          3
  32.4800          7
  32.5200          5
  32.5600          5
  32.6000          4
  32.6400          4
  32.6800          7
  32.7200          3
  32.7600          4
  32.8000          4
  32.8400          2
  32.8800          3
  32.9200          2
  32.9600          5
  33.0000          2
  33.0400          6
  33.0800          6
  33.1200          2
  33.1600          9
  33.2000          5
  33.2400          2
  33.2800          3
  33.3200          5
  33.3600          7
  33.4000          5
  33.4400          6
  33.4800          5
  33.5200          7
  33.5600          7
  33.6000          8
  33.6400          5
  33.6800          5
  33.7200          4
  33.7600          1
  33.8000          5
  33.8400          5
  33.8800          3
  33.9200          7
  33.9600          3
  34.0000          5
  34.0400          1
  34.0800          2
  34.1200          4
  34.1600          6
  34.2000          8
  34.2400          4
  34.2800          5
  34.3200          6
  34.3600          2
  34.4000          5
  34.4400          2
  34.4800          5
  34.5200          3
  34.5600          7
  34.6000          2
  34.6400          5
  34.6800          7
  34.7200          6
  34.7600          6
  34.8000          8
  34.8400         12
  34.8800          2
  34.9200          6
  34.9600          6
  35.0000          4
  35.0400          3
  35.0800          8
  35.1200          6
  35.1600          6
  35.2000          5
  35.2400          7
  35.2800          7
  35.3200          7
  35.3600          6
  35.4000          8
  35.4400          3
  35.4800          9
  35.5200          8
  35.5600          9
  35.6000          8
  35.6400          6
  35.6800          5
  35.7200          4
  35.7600          6
  35.8000          6
  35.8400          6
  35.8800          5
  35.9200          4
  35.9600          3
  36.0000         16
  36.0400         11
  36.0800         13
  36.1200         12
  36.1600          4
  36.2000          9
  36.2400          8
  36.2800          6
  36.3200          8
  36.3600         13
  36.4000          7
  36.4400          7
  36.4800         11
  36.5200          6
  36.5600          7
  36.6000          6
  36.6400          4
  36.6800         11
  36.7200          9
  36.7600         13
  36.8000         13
  36.8400          7
  36.8800          8
  36.9200          7
  36.9600          5
  37.0000         10
  37.0400         14
  37.0800          9
  37.1200         10
  37.1600         11
  37.2000         10
  37.2400          7
  37.2800          8
  37.3200         11
  37.3600          6
  37.4000         11
  37.4400         13
  37.4800         11
  37.5200          8
  37.5600         13
  37.6000         12
  37.6400         10
  37.6800         12
  37.7200          8
  37.7600         19
  37.8000          6
  37.8400         15
  37.8800          8
  37.9200         12
  37.9600         10
  38.0000         10
  38.0400         12
  38.0800         11
  38.1200         12
  38.1600         12
  38.2000         12
  38.2400         17
  38.2800         21
  38.3200         10
  38.3600         21
  38.4000         10
  38.4400         10
  38.4800         15
  38.5200         16
  38.5600         11
  38.6000         16
  38.6400         18
  38.6800         15
  38.7200         11
  38.7600         15
  38.8000         10
  38.8400         16
  38.8800         15
  38.9200         16
  38.9600         10
  39.0000         21
  39.0400          9
  39.0800         24
  39.1200         14
  39.1600         13
  39.2000         27
  39.2400         14
  39.2800         19
  39.3200         18
  39.3600         15
  39.4000         26
  39.4400         21
  39.4800         21
  39.5200         17
  39.5600         17
  39.6000         16
  39.6400         22
  39.6800         12
  39.7200         13
  39.7600         23
  39.8000         18
  39.8400         17
  39.8800         17
  39.9200         24
  39.9600         21
  40.0000         19
  40.0400         19
  40.0800         24
  40.1200         16
  40.1600          9
  40.2000         17
  40.2400         17
  40.2800         18
  40.3200         20
  40.3600         17
  40.4000         16
  40.4400         17
  40.4800         24
  40.5200         25
  40.5600         23
  40.6000         19
  40.6400         20
  40.6800         25
  40.7200         18
  40.7600         34
  40.8000         16
  40.8400         23
  40.8800         17
  40.9200         12
  40.9600         24
  41.0000         20
  41.0400         21
  41.0800         25
  41.1200         15
  41.1600         20
  41.2000         15
  41.2400         26
  41.2800         24
  41.3200         30
  41.3600         25
  41.4000         23
  41.4400         22
  41.4800         19
  41.5200         24
  41.5600         16
  41.6000         24
  41.6400         24
  41.6800         24
  41.7200         20
  41.7600         24
  41.8000         29
  41.8400         31
  41.8800         21
  41.9200         24
  41.9600         23
  42.0000         20
  42.0400         21
  42.0800         27
  42.1200         32
  42.1600         20
  42.2000         32
  42.2400         25
  42.2800         23
  42.3200         18
  42.3600         30
  42.4000         22
  42.4400         34
  42.4800         25
  42.5200         23
  42.5600         25
  42.6000         29
  42.6400         18
  42.6800         30
  42.7200         20
  42.7600         15
  42.8000         27
  42.8400         34
  42.8800         25
  42.9200         26
  42.9600         27
  43.0000         21
  43.0400         35
  43.0800         27
  43.1200         16
  43.1600         26
  43.2000         29
  43.2400         25
  43.2800         25
  43.3200         23
  43.3600         20
  43.4000         26
  43.4400         25
  43.4800         22
  43.5200         21
  43.5600         17
  43.6000         25
  43.6400         16
  43.6800          9
  43.7200         22
  43.7600         25
  43.8000         20
  43.8400         14
  43.8800         18
  43.9200         18
  43.9600         19
  44.0000         17
  44.0400         17
  44.0800         20
  44.1200         20
  44.1600         16
  44.2000         18
  44.2400         20
  44.2800         18
  44.3200         20
  44.3600         23
  44.4000         17
  44.4400         12
  44.4800         22
  44.5200         10
  44.5600         13
  44.6000         25
  44.6400         10
  44.6800         10
  44.7200         16
  44.7600         24
  44.8000         13
  44.8400         21
  44.8800         16
  44.9200         18
  44.9600         19
  45.0000         16
  45.0400         10
  45.0800         14
  45.1200         13
  45.1600         22
  45.2000         19
  45.2400         17
  45.2800         19
  45.3200         11
  45.3600         15
  45.4000         11
  45.4400         16
  45.4800         15
  45.5200         17
  45.5600         10
  45.6000         16
  45.6400         19
  45.6800         14
  45.7200         14
  45.7600         16
  45.8000         13
  45.8400         19
  45.8800          9
  45.9200          8
  45.9600         17
  46.0000          7
  46.0400         16
  46.0800         13
  46.1200         14
  46.1600         13
  46.2000         15
  46.2400         16
  46.2800          9
  46.3200         12
  46.3600         15
  46.4000         12
  46.4400          8
  46.4800         13
  46.5200          7
  46.5600          9
  46.6000         15
  46.6400         14
  46.6800         12
  46.7200         11
  46.7600          9
  46.8000         11
  46.8400         25
  46.8800         13
  46.9200          8
  46.9600         14
  47.0000         13
  47.0400          7
  47.0800         12
  47.1200         15
  47.1600         14
  47.2000         12
  47.2400          9
  47.2800         13
  47.3200         10
  47.3600         10
  47.4000          4
  47.4400          5
  47.4800          9
  47.5200         10
  47.5600          9
  47.6000          5
  47.6400          8
  47.6800          4
  47.7200          8
  47.7600         12
  47.8000          5
  47.8400          9
  47.8800          6
  47.9200          8
  47.9600         11
  48.0000         10
  48.0400          5
  48.0800         11
  48.1200          4
  48.1600          6
  48.2000          6
  48.2400         10
  48.2800         11
  48.3200          9
  48.3600          3
  48.4000          8
  48.4400         11
  48.4800         10
  48.5200          9
  48.5600         14
  48.6000          7
  48.6400          4
  48.6800         10
  48.7200          6
  48.7600         12
  48.8000          9
  48.8400         10
  48.8800          4
  48.9200          6
  48.9600          8
  49.0000          4
  49.0400         10
  49.0800         11
  49.1200          6
  49.1600          4
  49.2000          9
  49.2400         12
  49.2800          4
  49.3200          9
  49.3600          3
  49.4000          5
  49.4400          6
  49.4800          7
  49.5200         11
  49.5600          8
  49.6000          8
  49.6400          5
  49.6800          5
  49.7200          7
  49.7600          8
  49.8000         10
  49.8400          5
  49.8800          8
  49.9200          6
  49.9600          7
  50.0000          1
  50.0400          8
  50.0800         10
  50.1200          4
  50.1600          3
  50.2000          6
  50.2400          2
  50.2800          5
  50.3200          7
  50.3600          5
  50.4000          3
  50.4400          7
  50.4800          7
  50.5200          4
  50.5600          6
  50.6000         10
  50.6400          9
  50.6800          2
  50.7200          4
  50.7600          8
  50.8000          9
  50.8400          8
  50.8800          3
  50.9200          7
  50.9600          2
  51.0000          5
  51.0400          4
  51.0800          0
  51.1200          8
  51.1600          3
  51.2000          7
  51.2400          6
  51.2800          9
  51.3200          2
  51.3600          5
  51.4000          8
  51.4400          4
  51.4800         10
  51.5200          2
  51.5600          8
  51.6000          7
  51.6400          5
  51.6800          3
  51.7200          4
  51.7600          6
  51.8000          2
  51.8400          4
  51.8800          7
  51.9200          9
  51.9600          8
  52.0000          4
  52.0400          5
  52.0800          5
  52.1200          9
  52.1600          4
  52.2000          6
  52.2400          4
  52.2800          4
  52.3200          6
  52.3600          4
  52.4000          5
  52.4400          4
  52.4800          5
  52.5200          1
  52.5600          1
  52.6000          7
  52.6400          6
  52.6800          4
  52.7200          7
  52.7600          7
  52.8000          5
  52.8400          7
  52.8800          4
  52.9200          3
  52.9600          6
  53.0000          3
  53.0400          5
  53.0800          7
  53.1200          3
  53.1600          2
  53.2000          7
  53.2400          3
  53.2800          6
  53.3200          1
  53.3600          4
  53.4000          8
  53.4400          3
  53.4800          2
  53.5200          4
  53.5600          3
  53.6000         10
  53.6400          3
  53.6800          3
  53.7200          2
  53.7600          3
  53.8000          5
  53.8400          7
  53.8800          3
  53.9200          4
  53.9600          3
  54.0000          2
  54.0400          4
  54.0800          2
  54.1200          7
  54.1600          5
  54.2000          5
  54.2400          1
  54.2800          2
  54.3200          3
  54.3600          1
  54.4000          5
  54.4400          4
  54.4800          3
  54.5200          2
  54.5600          6
  54.6000          4
  54.6400          6
  54.6800          5
  54.7200          5
  54.7600          4
  54.8000          5
  54.8400          5
  54.8800          3
  54.9200          2
  54.9600          2
  55.0000          4
  55.0400          5
  55.0800          6
  55.1200          2
  55.1600          3
  55.2000          3
  55.2400          1
  55.2800          4
  55.3200          2
  55.3600          6
  55.4000          4
  55.4400          3
  55.4800          5
  55.5200          6
  55.5600          5
  55.6000          2
  55.6400          6
  55.6800          1
  55.7200          3
  55.7600          2
  55.8000          4
  55.8400          1
  55.8800          4
  55.9200          2
  55.9600          4
  56.0000          2
  56.0400          7
  56.0800          1
  56.1200          3
  56.1600          7
  56.2000          1
  56.2400          4
  56.2800          2
  56.3200          2
  56.3600          4
  56.4000          2
  56.4400          5
  56.4800          6
  56.5200          4
  56.5600          3
  56.6000          7
  56.6400          3
  56.6800          7
  56.7200          4
  56.7600          1
  56.8000          2
  56.8400         10
  56.8800          5
  56.9200          3
  56.9600          6
  57.0000          2
  57.0400          2
  57.0800          4
  57.1200          2
  57.1600          0
  57.2000          5
  57.2400          3
  57.2800          2
  57.3200          3
  57.3600          5
  57.4000          3
  57.4400          5
  57.4800          2
  57.5200          3
  57.5600          5
  57.6000          6
  57.6400          2
  57.6800          1
  57.7200          3
  57.7600          7
  57.8000          4
  57.8400          0
  57.8800          5
  57.9200          1
  57.9600          7
  58.0000          2
  58.0400          7
  58.0800          2
  58.1200          5
  58.1600          1
  58.2000          3
  58.2400          5
  58.2800          4
  58.3200          5
  58.3600          7
  58.4000          0
  58.4400          2
  58.4800          1
  58.5200          3
  58.5600          5
  58.6000          2
  58.6400          2
  58.6800          4
  58.7200          4
  58.7600          5
  58.8000          7
  58.8400          4
  58.8800          2
  58.9200          7
  58.9600          2
  59.0000          5
  59.0400          4
  59.0800          4
  59.1200          3
  59.1600          3
  59.2000          1
  59.2400          3
  59.2800          4
  59.3200          2
  59.3600          5
  59.4000          5
  59.4400          7
  59.4800          4
  59.5200          4
  59.5600          7
  59.6000          2
  59.6400          0
  59.6800          5
  59.7200          6
  59.7600          2
  59.8000          6
  59.8400          3
  59.8800          5
  59.9200          6
  59.9600          3
  60.0000          4
  60.0400          4
  60.0800          2
  60.1200          4
  60.1600          2
  60.2000          5
  60.2400          4
  60.2800          5
  60.3200          2
  60.3600          2
  60.4000          3
  60.4400          7
  60.4800          4
  60.5200          4
  60.5600          8
  60.6000          6
  60.6400          4
  60.6800          7
  60.7200          0
  60.7600          5
  60.8000          3
  60.8400          1
  60.8800          5
  60.9200          3
  60.9600          3
  61.0000          2
  61.0400          2
  61.0800          2
  61.1200          3
  61.1600          3
  61.2000          3
  61.2400          4
  61.2800          5
  61.3200          4
  61.3600          4
  61.4000          1
  61.4400          4
  61.4800          0
  61.5200          1
  61.5600          6
  61.6000          6
  61.6400          3
  61.6800          4
  61.7200          1
  61.7600          3
  61.8000          2
  61.8400          3
  61.8800          6
  61.9200          2
  61.9600          3
  62.0000          3
  62.0400          5
  62.0800          4
  62.1200          4
  62.1600          3
  62.2000          6
  62.2400          2
  62.2800          4
  62.3200          4
  62.3600          3
  62.4000          3
  62.4400          3
  62.4800         10
  62.5200          7
  62.5600          5
  62.6000          1
  62.6400          3
  62.6800          3
  62.7200          1
  62.7600          5
  62.8000          6
  62.8400          5
  62.8800          4
  62.9200          3
  62.9600          3
  63.0000          4
  63.0400          3
  63.0800          4
  63.1200          6
  63.1600          5
  63.2000          4
  63.2400          2
  63.2800          4
  63.3200          2
  63.3600          5
  63.4000          4
  63.4400          9
  63.4800          5
  63.5200          1
  63.5600          5
  63.6000          6
  63.6400          1
  63.6800          7
  63.7200          1
  63.7600          3
  63.8000          4
  63.8400          1
  63.8800          2
  63.9200          5
  63.9600          2
  64.0000          5
  64.0400          1
  64.0800          2
  64.1200          5
  64.1600          3
  64.2000          3
  64.2400          2
  64.2800          2
  64.3200          2
  64.3600          2
  64.4000          6
  64.4400          3
  64.4800          3
  64.5200          3
  64.5600          7
  64.6000          4
  64.6400          4
  64.6800          6
  64.7200          1
  64.7600          4
  64.8000          3
  64.8400          2
  64.8800          3
  64.9200          4
  64.9600          4
  65.0000          5
  65.0400          6
  65.0800          7
  65.1200          4
  65.1600          8
  65.2000          2
  65.2400          2
  65.2800          2
  65.3200          3
  65.3600          8
  65.4000          7
  65.4400          3
  65.4800          3
  65.5200          6
  65.5600          2
  65.6000          4
  65.6400          4
  65.6800          4
  65.7200          3
  65.7600          8
  65.8000          8
  65.8400          5
  65.8800          6
  65.9200          3
  65.9600          3
  66.0000          3
  66.0400          6
  66.0800          5
  66.1200          3
  66.1600          4
  66.2000          3
  66.2400          6
  66.2800          3
  66.3200          5
  66.3600          3
  66.4000          4
  66.4400          2
  66.4800          7
  66.5200          6
  66.5600          2
  66.6000          2
  66.6400          4
  66.6800          3
  66.7200          4
  66.7600          6
  66.8000          5
  66.8400          5
  66.8800          5
  66.9200          3
  66.9600          4
  67.0000          6
  67.0400          6
  67.0800          8
  67.1200          4
  67.1600          2
  67.2000          0
  67.2400          7
  67.2800          3
  67.3200          5
  67.3600          3
  67.4000          0
  67.4400          8
  67.4800          4
  67.5200          4
  67.5600          4
  67.6000          4
  67.6400          8
  67.6800          9
  67.7200          6
  67.7600          4
  67.8000          8
  67.8400          6
  67.8800          6
  67.9200          3
  67.9600          4
  68.0000          9
  68.0400          4
  68.0800          6
  68.1200          4
  68.1600          3
  68.2000          8
  68.2400          9
  68.2800          2
  68.3200          2
  68.3600          4
  68.4000          5
  68.4400          7
  68.4800          8
  68.5200          5
  68.5600          8
  68.6000          8
  68.6400          6
  68.6800          5
  68.7200         12
  68.7600          7
  68.8000          7
  68.8400          4
  68.8800          5
  68.9200          7
  68.9600          4
  69.0000         10
  69.0400          6
  69.0800          5
  69.1200          2
  69.1600          6
  69.2000          8
  69.2400          7
  69.2800          5
  69.3200          4
  69.3600          8
  69.4000          5
  69.4400          9
  69.4800          8
  69.5200          4
  69.5600          4
  69.6000          6
  69.6400          4
  69.6800          6
  69.7200          4
  69.7600          8
  69.8000          5
  69.8400          3
  69.8800          6
  69.9200          5
  69.9600          2
  70.0000          6