File: MP6/data/XRD/Roentgen_Kristallin.uxd
; (content of file C:\DIFFDAT1\FPraktikum\WS1819\BA-C-04\Roentgen_Kristallin.raw)
_FILEVERSION = 2
_SAMPLE = Kristall
_+SAMPLE =
_SITE = Münster
_USER = "Institut für Materialphysik"
_GONIOMETER_CODE = 0
; Goniometer : D5000 theta/2theta, stage : Unknown
_SAMPLE_CHANGER_CODE = 0
_ATTACHMENTS_CODE = 0
_GONIOMETER_RADIUS = 217.5
_FIXED_DIVSLIT = 0
_FIXED_SAMPLESLIT = 0
_FIXED_DETSLIT = 1
_MONOCHROMATOR = 0
; Incident beam monochromator : None
_SOLLER_SLITS_2 = N
_THIN_FILM = N
_BETA_FILTER = N
_FIXED_ANTISLIT = 0
_ANALYZER_CODE = 0
; Received beam analyzer : None
_DATEMEASURED = "07-Jan-2019 10:01:33"
_WL_UNIT = A
_WL1 = 1.5406
_WL2 = 1.54439
_WL3 = 1.39222
_WLRATIO = 0.5
_ANODE = Cu

; Data for range 1
_DRIVE = COUPLED
_STEPTIME = 2
_STEPSIZE = 0.02
_STEPMODE = C
_START = 20
_THETA = 10
_2THETA = 20
_KHI = 0
_PHI = 0
_X = 0
_Y = 0
_Z = 0
_DIVERGENCE = 0.992
_ANTISCATTER = 0.499
_DETECTOR = 1
; Detector type : Scintillation counter
_HV = 950
_GAIN = 80
_LLD = 0.8
_ULD = 1.6
_DETECTORSLIT = out
_AUX1 = 0
_AUX2 = 0
_AUX3 = 0
_TIMESTARTED = 8
_ROTATION_SPEED = 30
_TEMP_RATE = -1
_TEMP_DELAY = -1
_RANGE_WL = 1.5406
_3DPLANE = 0
_V4_COUNTERS_MASK = 1
_V4_DRIVES_MASK = 0
_V4_ENCODERS_MASK = 0
_2THETACOUNTS = 1
; 2THETA  Cnt1_D1
  20.0000          4
  20.0400          1
  20.0800          4
  20.1200          5
  20.1600          7
  20.2000          3
  20.2400          2
  20.2800          4
  20.3200          2
  20.3600          4
  20.4000          5
  20.4400         11
  20.4800          9
  20.5200          5
  20.5600          4
  20.6000          0
  20.6400          7
  20.6800          5
  20.7200          2
  20.7600          2
  20.8000          4
  20.8400          4
  20.8800          4
  20.9200          4
  20.9600          2
  21.0000          7
  21.0400          8
  21.0800          4
  21.1200          5
  21.1600          8
  21.2000          8
  21.2400          6
  21.2800          8
  21.3200          4
  21.3600         10
  21.4000          9
  21.4400         16
  21.4800         15
  21.5200         10
  21.5600          7
  21.6000          5
  21.6400         10
  21.6800          6
  21.7200          5
  21.7600          4
  21.8000          6
  21.8400          5
  21.8800          3
  21.9200          2
  21.9600          3
  22.0000          3
  22.0400          8
  22.0800          6
  22.1200          1
  22.1600          3
  22.2000          5
  22.2400          4
  22.2800          7
  22.3200          3
  22.3600          0
  22.4000          8
  22.4400          4
  22.4800          6
  22.5200          8
  22.5600          6
  22.6000          6
  22.6400          4
  22.6800          2
  22.7200          4
  22.7600          5
  22.8000          8
  22.8400          2
  22.8800          2
  22.9200          6
  22.9600          8
  23.0000          3
  23.0400          5
  23.0800          5
  23.1200          6
  23.1600          4
  23.2000          0
  23.2400          3
  23.2800          3
  23.3200          3
  23.3600          1
  23.4000          3
  23.4400          4
  23.4800          3
  23.5200          3
  23.5600          0
  23.6000          4
  23.6400          3
  23.6800          2
  23.7200          3
  23.7600          4
  23.8000          3
  23.8400          5
  23.8800          2
  23.9200          3
  23.9600          4
  24.0000          5
  24.0400          7
  24.0800          3
  24.1200          3
  24.1600          6
  24.2000          3
  24.2400          1
  24.2800          2
  24.3200          2
  24.3600          2
  24.4000          3
  24.4400          7
  24.4800          2
  24.5200          7
  24.5600          4
  24.6000          3
  24.6400          3
  24.6800          2
  24.7200          5
  24.7600          6
  24.8000          2
  24.8400          5
  24.8800          1
  24.9200          1
  24.9600          4
  25.0000          3
  25.0400          2
  25.0800          2
  25.1200          0
  25.1600          2
  25.2000          6
  25.2400          3
  25.2800          1
  25.3200          7
  25.3600          6
  25.4000          2
  25.4400          6
  25.4800          6
  25.5200          5
  25.5600          2
  25.6000          2
  25.6400          3
  25.6800          5
  25.7200          2
  25.7600          1
  25.8000          7
  25.8400          3
  25.8800          1
  25.9200          4
  25.9600          4
  26.0000          5
  26.0400          1
  26.0800          5
  26.1200          4
  26.1600          1
  26.2000          5
  26.2400          3
  26.2800          2
  26.3200          5
  26.3600          3
  26.4000          4
  26.4400          4
  26.4800          4
  26.5200          4
  26.5600          2
  26.6000          2
  26.6400          1
  26.6800          5
  26.7200          1
  26.7600          7
  26.8000          3
  26.8400          3
  26.8800          2
  26.9200          3
  26.9600          1
  27.0000          8
  27.0400          5
  27.0800          8
  27.1200          1
  27.1600          3
  27.2000          6
  27.2400          4
  27.2800          7
  27.3200          4
  27.3600         11
  27.4000         10
  27.4400         11
  27.4800          6
  27.5200         13
  27.5600          1
  27.6000          4
  27.6400          4
  27.6800          3
  27.7200          9
  27.7600          3
  27.8000          4
  27.8400          5
  27.8800          5
  27.9200          3
  27.9600          4
  28.0000          6
  28.0400          3
  28.0800          7
  28.1200          9
  28.1600          6
  28.2000          6
  28.2400          9
  28.2800          9
  28.3200          4
  28.3600          6
  28.4000          4
  28.4400          4
  28.4800          0
  28.5200          5
  28.5600          3
  28.6000          6
  28.6400          2
  28.6800          0
  28.7200          4
  28.7600          2
  28.8000          4
  28.8400          5
  28.8800          2
  28.9200          4
  28.9600          3
  29.0000          5
  29.0400          6
  29.0800          2
  29.1200          6
  29.1600          3
  29.2000          2
  29.2400          1
  29.2800          2
  29.3200          3
  29.3600          1
  29.4000          0
  29.4400          2
  29.4800          4
  29.5200          1
  29.5600          1
  29.6000          1
  29.6400          0
  29.6800          2
  29.7200          2
  29.7600          5
  29.8000          3
  29.8400          4
  29.8800          2
  29.9200          3
  29.9600          1
  30.0000          3
  30.0400          1
  30.0800          3
  30.1200          2
  30.1600          3
  30.2000          3
  30.2400          5
  30.2800          2
  30.3200          4
  30.3600          4
  30.4000          2
  30.4400          4
  30.4800          1
  30.5200          4
  30.5600          2
  30.6000          5
  30.6400          2
  30.6800          1
  30.7200          3
  30.7600          0
  30.8000          9
  30.8400          3
  30.8800          3
  30.9200          5
  30.9600          3
  31.0000          3
  31.0400          3
  31.0800          2
  31.1200          0
  31.1600          3
  31.2000          3
  31.2400          5
  31.2800          6
  31.3200         11
  31.3600          7
  31.4000          8
  31.4400          7
  31.4800          4
  31.5200          4
  31.5600          4
  31.6000          5
  31.6400          6
  31.6800          6
  31.7200          4
  31.7600          3
  31.8000          9
  31.8400          6
  31.8800          5
  31.9200          4
  31.9600          6
  32.0000          5
  32.0400          2
  32.0800          3
  32.1200          2
  32.1600          6
  32.2000          3
  32.2400          1
  32.2800          2
  32.3200          3
  32.3600          3
  32.4000          3
  32.4400          2
  32.4800          2
  32.5200          3
  32.5600          5
  32.6000          2
  32.6400          3
  32.6800          0
  32.7200          2
  32.7600          2
  32.8000          3
  32.8400          0
  32.8800          6
  32.9200          0
  32.9600          2
  33.0000          2
  33.0400          4
  33.0800          4
  33.1200          3
  33.1600          2
  33.2000          2
  33.2400          1
  33.2800          3
  33.3200          0
  33.3600          1
  33.4000          7
  33.4400          0
  33.4800          5
  33.5200          5
  33.5600          4
  33.6000          5
  33.6400          9
  33.6800          3
  33.7200         17
  33.7600          8
  33.8000          8
  33.8400          5
  33.8800          4
  33.9200          1
  33.9600          2
  34.0000          5
  34.0400          3
  34.0800          4
  34.1200          7
  34.1600          3
  34.2000          4
  34.2400          4
  34.2800          2
  34.3200          1
  34.3600          0
  34.4000          4
  34.4400          3
  34.4800          1
  34.5200          3
  34.5600          2
  34.6000          4
  34.6400          5
  34.6800          5
  34.7200          5
  34.7600          4
  34.8000         13
  34.8400          9
  34.8800         11
  34.9200         18
  34.9600          7
  35.0000          6
  35.0400          2
  35.0800          6
  35.1200          6
  35.1600          8
  35.2000         12
  35.2400         11
  35.2800          7
  35.3200          7
  35.3600          6
  35.4000          3
  35.4400          6
  35.4800          6
  35.5200          1
  35.5600          2
  35.6000          7
  35.6400          4
  35.6800          6
  35.7200          1
  35.7600          3
  35.8000          6
  35.8400          3
  35.8800          3
  35.9200          8
  35.9600          9
  36.0000         11
  36.0400         11
  36.0800          6
  36.1200          8
  36.1600          6
  36.2000          3
  36.2400          7
  36.2800          7
  36.3200          3
  36.3600          4
  36.4000          2
  36.4400          4
  36.4800          5
  36.5200          4
  36.5600          3
  36.6000          3
  36.6400          6
  36.6800          6
  36.7200          5
  36.7600          3
  36.8000          4
  36.8400          3
  36.8800          5
  36.9200          4
  36.9600          9
  37.0000         10
  37.0400         20
  37.0800         21
  37.1200         21
  37.1600         21
  37.2000         21
  37.2400         14
  37.2800         14
  37.3200          6
  37.3600          8
  37.4000          4
  37.4400          9
  37.4800          1
  37.5200          7
  37.5600          5
  37.6000          6
  37.6400          4
  37.6800          2
  37.7200          1
  37.7600          4
  37.8000          5
  37.8400          7
  37.8800          7
  37.9200          8
  37.9600         20
  38.0000         14
  38.0400         16
  38.0800         10
  38.1200         11
  38.1600          4
  38.2000          8
  38.2400          7
  38.2800          9
  38.3200         14
  38.3600          8
  38.4000          7
  38.4400          2
  38.4800          8
  38.5200          9
  38.5600         13
  38.6000         17
  38.6400         19
  38.6800         20
  38.7200         20
  38.7600         14
  38.8000         12
  38.8400          8
  38.8800          6
  38.9200          8
  38.9600          4
  39.0000          7
  39.0400          5
  39.0800          8
  39.1200          8
  39.1600         14
  39.2000          8
  39.2400         18
  39.2800         14
  39.3200         23
  39.3600         27
  39.4000         35
  39.4400         51
  39.4800         58
  39.5200         64
  39.5600         47
  39.6000         71
  39.6400         54
  39.6800         48
  39.7200         50
  39.7600         70
  39.8000         69
  39.8400         76
  39.8800         63
  39.9200         36
  39.9600         37
  40.0000         29
  40.0400         12
  40.0800         15
  40.1200          8
  40.1600         12
  40.2000         13
  40.2400          6
  40.2800         14
  40.3200         18
  40.3600         24
  40.4000         30
  40.4400         44
  40.4800         53
  40.5200         58
  40.5600         46
  40.6000         41
  40.6400         22
  40.6800         29
  40.7200         16
  40.7600         16
  40.8000         10
  40.8400         11
  40.8800         11
  40.9200         13
  40.9600         14
  41.0000         15
  41.0400         12
  41.0800          9
  41.1200          8
  41.1600          7
  41.2000          4
  41.2400          9
  41.2800          7
  41.3200         17
  41.3600         14
  41.4000         22
  41.4400         23
  41.4800         49
  41.5200         49
  41.5600         66
  41.6000         59
  41.6400         55
  41.6800         43
  41.7200         47
  41.7600         31
  41.8000         21
  41.8400          7
  41.8800          8
  41.9200          0
  41.9600          7
  42.0000          8
  42.0400          8
  42.0800          4
  42.1200         11
  42.1600          6
  42.2000          1
  42.2400          5
  42.2800          2
  42.3200          7
  42.3600          5
  42.4000         10
  42.4400          9
  42.4800          6
  42.5200         10
  42.5600         17
  42.6000         24
  42.6400         22
  42.6800         27
  42.7200         26
  42.7600         21
  42.8000         17
  42.8400         21
  42.8800          7
  42.9200          9
  42.9600          7
  43.0000         11
  43.0400         10
  43.0800          8
  43.1200          3
  43.1600          7
  43.2000         16
  43.2400         10
  43.2800         18
  43.3200         22
  43.3600         27
  43.4000         30
  43.4400         17
  43.4800         35
  43.5200         52
  43.5600         59
  43.6000         50
  43.6400         35
  43.6800         36
  43.7200         49
  43.7600         17
  43.8000         33
  43.8400         18
  43.8800         26
  43.9200         27
  43.9600         25
  44.0000         40
  44.0400         23
  44.0800         13
  44.1200         10
  44.1600          8
  44.2000         11
  44.2400          6
  44.2800          6
  44.3200          5
  44.3600          4
  44.4000          7
  44.4400          7
  44.4800          7
  44.5200         15
  44.5600         13
  44.6000         29
  44.6400         29
  44.6800         23
  44.7200         25
  44.7600         16
  44.8000         14
  44.8400         10
  44.8800          5
  44.9200          5
  44.9600          3
  45.0000          9
  45.0400          5
  45.0800          9
  45.1200          8
  45.1600         12
  45.2000         17
  45.2400         14
  45.2800         15
  45.3200         26
  45.3600         12
  45.4000         29
  45.4400         15
  45.4800         12
  45.5200         16
  45.5600          5
  45.6000          7
  45.6400          8
  45.6800          8
  45.7200          5
  45.7600          7
  45.8000          5
  45.8400         12
  45.8800          8
  45.9200         11
  45.9600          7
  46.0000          3
  46.0400          3
  46.0800          3
  46.1200          8
  46.1600          2
  46.2000          5
  46.2400          2
  46.2800          5
  46.3200          5
  46.3600          2
  46.4000          4
  46.4400          3
  46.4800          3
  46.5200          4
  46.5600          4
  46.6000          4
  46.6400          7
  46.6800          6
  46.7200         13
  46.7600         10
  46.8000         17
  46.8400         16
  46.8800         17
  46.9200         29
  46.9600         26
  47.0000         19
  47.0400         11
  47.0800         10
  47.1200          7
  47.1600          7
  47.2000          6
  47.2400          4
  47.2800          1
  47.3200          4
  47.3600          1
  47.4000          7
  47.4400          8
  47.4800         14
  47.5200         16
  47.5600         13
  47.6000         21
  47.6400          4
  47.6800          7
  47.7200          3
  47.7600          8
  47.8000          7
  47.8400          2
  47.8800          3
  47.9200          4
  47.9600          2
  48.0000          4
  48.0400          2
  48.0800          3
  48.1200          5
  48.1600          8
  48.2000          3
  48.2400          5
  48.2800          3
  48.3200          3
  48.3600          8
  48.4000          8
  48.4400          6
  48.4800         11
  48.5200          6
  48.5600          6
  48.6000          7
  48.6400         14
  48.6800          9
  48.7200          7
  48.7600          8
  48.8000          9
  48.8400          8
  48.8800         12
  48.9200          8
  48.9600          5
  49.0000         10
  49.0400          8
  49.0800          6
  49.1200          2
  49.1600          3
  49.2000          2
  49.2400          6
  49.2800          4
  49.3200          3
  49.3600          5
  49.4000          8
  49.4400          7
  49.4800          8
  49.5200         10
  49.5600          9
  49.6000          9
  49.6400         10
  49.6800          8
  49.7200          6
  49.7600          6
  49.8000          5
  49.8400          8
  49.8800          5
  49.9200          8
  49.9600          2
  50.0000          6
  50.0400          4
  50.0800          3
  50.1200          6
  50.1600          1
  50.2000          7
  50.2400          3
  50.2800          3
  50.3200          3
  50.3600          5
  50.4000          3
  50.4400          5
  50.4800          4
  50.5200          4
  50.5600          3
  50.6000          5
  50.6400          6
  50.6800          9
  50.7200          9
  50.7600         10
  50.8000         13
  50.8400         11
  50.8800          6
  50.9200          6
  50.9600          9
  51.0000         10
  51.0400          8
  51.0800         13
  51.1200          7
  51.1600         10
  51.2000          9
  51.2400          8
  51.2800         10
  51.3200         12
  51.3600          6
  51.4000          6
  51.4400          6
  51.4800          3
  51.5200          4
  51.5600         11
  51.6000          6
  51.6400         12
  51.6800          5
  51.7200          3
  51.7600          7
  51.8000          7
  51.8400          2
  51.8800          5
  51.9200          3
  51.9600          4
  52.0000          2
  52.0400          3
  52.0800          2
  52.1200          1
  52.1600          3
  52.2000          2
  52.2400          8
  52.2800          3
  52.3200          3
  52.3600          1
  52.4000          4
  52.4400          2
  52.4800          4
  52.5200          1
  52.5600          0
  52.6000          2
  52.6400          1
  52.6800          0
  52.7200          4
  52.7600          0
  52.8000          1
  52.8400          1
  52.8800          3
  52.9200          4
  52.9600          6
  53.0000         14
  53.0400         17
  53.0800         10
  53.1200         12
  53.1600         12
  53.2000          5
  53.2400          8
  53.2800         10
  53.3200          2
  53.3600          1
  53.4000          2
  53.4400          3
  53.4800          5
  53.5200          4
  53.5600          2
  53.6000          2
  53.6400          2
  53.6800          2
  53.7200          4
  53.7600          2
  53.8000          1
  53.8400          5
  53.8800          3
  53.9200          5
  53.9600          1
  54.0000          3
  54.0400          4
  54.0800          5
  54.1200          5
  54.1600          2
  54.2000          3
  54.2400          2
  54.2800          3
  54.3200          1
  54.3600          2
  54.4000          2
  54.4400          4
  54.4800          5
  54.5200          3
  54.5600          4
  54.6000          6
  54.6400          7
  54.6800         16
  54.7200          8
  54.7600          9
  54.8000         12
  54.8400          7
  54.8800         12
  54.9200          9
  54.9600          7
  55.0000          3
  55.0400          2
  55.0800          3
  55.1200          4
  55.1600          4
  55.2000          2
  55.2400          2
  55.2800          1
  55.3200          2
  55.3600          5
  55.4000          4
  55.4400          6
  55.4800          3
  55.5200          2
  55.5600          3
  55.6000          3
  55.6400          2
  55.6800          0
  55.7200          2
  55.7600          4
  55.8000          3
  55.8400          6
  55.8800          3
  55.9200          4
  55.9600         12
  56.0000         14
  56.0400         19
  56.0800         15
  56.1200         20
  56.1600         19
  56.2000         16
  56.2400          9
  56.2800         10
  56.3200          7
  56.3600          5
  56.4000          6
  56.4400          6
  56.4800          4
  56.5200          7
  56.5600         10
  56.6000          8
  56.6400          3
  56.6800          4
  56.7200          5
  56.7600          7
  56.8000          5
  56.8400          6
  56.8800          3
  56.9200          2
  56.9600          3
  57.0000          2
  57.0400          2
  57.0800          3
  57.1200          1
  57.1600          2
  57.2000          1
  57.2400          1
  57.2800          2
  57.3200          4
  57.3600          3
  57.4000          0
  57.4400          2
  57.4800          0
  57.5200          1
  57.5600          0
  57.6000          1
  57.6400          2
  57.6800          0
  57.7200          5
  57.7600          3
  57.8000         10
  57.8400          3
  57.8800          2
  57.9200          3
  57.9600          2
  58.0000          1
  58.0400          2
  58.0800          1
  58.1200          2
  58.1600          3
  58.2000          2
  58.2400          0
  58.2800          1
  58.3200          2
  58.3600          1
  58.4000          3
  58.4400          3
  58.4800          2
  58.5200          3
  58.5600          2
  58.6000          0
  58.6400          4
  58.6800          1
  58.7200          1
  58.7600          2
  58.8000          4
  58.8400          3
  58.8800          2
  58.9200          5
  58.9600          5
  59.0000          3
  59.0400          7
  59.0800          6
  59.1200          3
  59.1600          5
  59.2000          5
  59.2400          4
  59.2800          3
  59.3200          4
  59.3600          3
  59.4000          2
  59.4400          4
  59.4800          6
  59.5200          5
  59.5600          3
  59.6000          3
  59.6400          3
  59.6800          2
  59.7200          6
  59.7600          6
  59.8000          4
  59.8400          5
  59.8800          4
  59.9200          7
  59.9600          9
  60.0000          4
  60.0400          2
  60.0800          8
  60.1200          5
  60.1600          3
  60.2000          1
  60.2400          3
  60.2800          0
  60.3200          4
  60.3600          3
  60.4000          5
  60.4400          1
  60.4800          3
  60.5200          1
  60.5600          4
  60.6000          3
  60.6400          3
  60.6800          3
  60.7200          1
  60.7600          3
  60.8000          3
  60.8400          3
  60.8800          5
  60.9200          4
  60.9600          5
  61.0000          3
  61.0400          1
  61.0800          6
  61.1200          7
  61.1600          2
  61.2000          4
  61.2400          0
  61.2800          2
  61.3200          5
  61.3600          4
  61.4000          4
  61.4400          2
  61.4800          2
  61.5200          3
  61.5600          5
  61.6000          7
  61.6400          4
  61.6800          3
  61.7200          9
  61.7600          3
  61.8000          4
  61.8400          2
  61.8800          0
  61.9200          0
  61.9600          0
  62.0000          1
  62.0400          0
  62.0800          0
  62.1200          0
  62.1600          0
  62.2000          0
  62.2400          0
  62.2800          0
  62.3200          0
  62.3600          0
  62.4000          0
  62.4400          0
  62.4800          0
  62.5200          0
  62.5600          0
  62.6000          1
  62.6400          1
  62.6800          1
  62.7200          0
  62.7600          0
  62.8000          0
  62.8400          1
  62.8800          0
  62.9200          0
  62.9600          0
  63.0000          0
  63.0400          1
  63.0800          1
  63.1200          1
  63.1600          0
  63.2000          0
  63.2400          1
  63.2800          0
  63.3200          0
  63.3600          0
  63.4000          0
  63.4400          0
  63.4800          0
  63.5200          0
  63.5600          0
  63.6000          0
  63.6400          1
  63.6800          0
  63.7200          1
  63.7600          0
  63.8000          1
  63.8400          0
  63.8800          0
  63.9200          1
  63.9600          0
  64.0000          0
  64.0400          0
  64.0800          1
  64.1200          0
  64.1600          0
  64.2000          0
  64.2400          0
  64.2800          0
  64.3200          0
  64.3600          0
  64.4000          1
  64.4400          0
  64.4800          0
  64.5200          0
  64.5600          1
  64.6000          0
  64.6400          0
  64.6800          1
  64.7200          0
  64.7600          0
  64.8000          0
  64.8400          0
  64.8800          0
  64.9200          0
  64.9600          1
  65.0000          0
  65.0400          0
  65.0800          0
  65.1200          0
  65.1600          0
  65.2000          0
  65.2400          0
  65.2800          0
  65.3200          0
  65.3600          0
  65.4000          0
  65.4400          0
  65.4800          0
  65.5200          0
  65.5600          0
  65.6000          0
  65.6400          0
  65.6800          0
  65.7200          0
  65.7600          0
  65.8000          0
  65.8400          0
  65.8800          0
  65.9200          0
  65.9600          1
  66.0000          0
  66.0400          0
  66.0800          0
  66.1200          0
  66.1600          0
  66.2000          0
  66.2400          1
  66.2800          0
  66.3200          0
  66.3600          0
  66.4000          0
  66.4400          0
  66.4800          0
  66.5200          0
  66.5600          1
  66.6000          0
  66.6400          0
  66.6800          0
  66.7200          1
  66.7600          0
  66.8000          0
  66.8400          0
  66.8800          0
  66.9200          0
  66.9600          0
  67.0000          0
  67.0400          0
  67.0800          0
  67.1200          0
  67.1600          1
  67.2000          0
  67.2400          0
  67.2800          0
  67.3200          0
  67.3600          0
  67.4000          0
  67.4400          0
  67.4800          0
  67.5200          0
  67.5600          2
  67.6000          1
  67.6400          2
  67.6800          0
  67.7200          0
  67.7600          0
  67.8000          1
  67.8400          0
  67.8800          0
  67.9200          1
  67.9600          0
  68.0000          0
  68.0400          0
  68.0800          0
  68.1200          0
  68.1600          0
  68.2000          0
  68.2400          0
  68.2800          0
  68.3200          0
  68.3600          0
  68.4000          0
  68.4400          0
  68.4800          0
  68.5200          0
  68.5600          1
  68.6000          1
  68.6400          0
  68.6800          1
  68.7200          0
  68.7600          0
  68.8000          0
  68.8400          0
  68.8800          1
  68.9200          0
  68.9600          0
  69.0000          0
  69.0400          0
  69.0800          0
  69.1200          0
  69.1600          0
  69.2000          0
  69.2400          0
  69.2800          0
  69.3200          1
  69.3600          0
  69.4000          0
  69.4400          0
  69.4800          1
  69.5200          0
  69.5600          0
  69.6000          1
  69.6400          0
  69.6800          0
  69.7200          0
  69.7600          0
  69.8000          0
  69.8400          1
  69.8800          2
  69.9200          0
  69.9600          0
  70.0000          1